,workerid,proliferate.condition,object,response,rt,slide_number_in_experiment,utterance,catch_trials,subject_information.age,subject_information.asses,schoolLanguage,subject_information.comments,country,subject_information.dialectOne,subject_information.dialectTwo,subject_information.education,subject_information.enjoyment,subject_information.fairprice,firstLanguage,subject_information.gender,subject_information.liveInYugo,otherLanguage,subject_information.problems,system.Browser,system.OS,system.screenH,system.screenW,time_in_minutes,error,status
0,158,condition1,red_balloon,balon,6403,2,balloon,[],39.0,Yes,svedski,,BIH,ijekavica,štokavski,3,1,Da,srpskohrvatski i svedski,Male,preAge8,engleski,Da. Rijeci od tri slova ili krace nisu se mogle pisati.,Chrome,Windows,720,1280,20.39855,,heritage
1,158,condition1,blue_bed,krevet,5472,3,bed,[],39.0,Yes,svedski,,BIH,ijekavica,štokavski,3,1,Da,srpskohrvatski i svedski,Male,preAge8,engleski,Da. Rijeci od tri slova ili krace nisu se mogle pisati.,Chrome,Windows,720,1280,20.39855,,heritage
2,158,condition1,blue_notebook,sveska,8285,4,notebook,[],39.0,Yes,svedski,,BIH,ijekavica,štokavski,3,1,Da,srpskohrvatski i svedski,Male,preAge8,engleski,Da. Rijeci od tri slova ili krace nisu se mogle pisati.,Chrome,Windows,720,1280,20.39855,,heritage
3,158,condition1,black_tent,sator,8458,5,tent,[],39.0,Yes,svedski,,BIH,ijekavica,štokavski,3,1,Da,srpskohrvatski i svedski,Male,preAge8,engleski,Da. Rijeci od tri slova ili krace nisu se mogle pisati.,Chrome,Windows,720,1280,20.39855,,heritage
4,158,condition1,black_basket,korpa,5552,6,basket,[],39.0,Yes,svedski,,BIH,ijekavica,štokavski,3,1,Da,srpskohrvatski i svedski,Male,preAge8,engleski,Da. Rijeci od tri slova ili krace nisu se mogle pisati.,Chrome,Windows,720,1280,20.39855,,heritage
5,158,condition1,green_razor,brijac,11725,7,razor,[],39.0,Yes,svedski,,BIH,ijekavica,štokavski,3,1,Da,srpskohrvatski i svedski,Male,preAge8,engleski,Da. Rijeci od tri slova ili krace nisu se mogle pisati.,Chrome,Windows,720,1280,20.39855,,heritage
6,158,condition1,green_umbrella,kisobran,6742,8,umbrella,[],39.0,Yes,svedski,,BIH,ijekavica,štokavski,3,1,Da,srpskohrvatski i svedski,Male,preAge8,engleski,Da. Rijeci od tri slova ili krace nisu se mogle pisati.,Chrome,Windows,720,1280,20.39855,,heritage
7,158,condition1,green_luggage,torba,5795,9,luggage,[],39.0,Yes,svedski,,BIH,ijekavica,štokavski,3,1,Da,srpskohrvatski i svedski,Male,preAge8,engleski,Da. Rijeci od tri slova ili krace nisu se mogle pisati.,Chrome,Windows,720,1280,20.39855,,heritage
8,158,condition1,black_vase,vazna,4917,10,vase,[],39.0,Yes,svedski,,BIH,ijekavica,štokavski,3,1,Da,srpskohrvatski i svedski,Male,preAge8,engleski,Da. Rijeci od tri slova ili krace nisu se mogle pisati.,Chrome,Windows,720,1280,20.39855,,heritage
9,158,condition1,purple_purse,tasna,4528,11,purse,[],39.0,Yes,svedski,,BIH,ijekavica,štokavski,3,1,Da,srpskohrvatski i svedski,Male,preAge8,engleski,Da. Rijeci od tri slova ili krace nisu se mogle pisati.,Chrome,Windows,720,1280,20.39855,,heritage
10,158,condition1,white_key,kljuc,5341,12,key,[],39.0,Yes,svedski,,BIH,ijekavica,štokavski,3,1,Da,srpskohrvatski i svedski,Male,preAge8,engleski,Da. Rijeci od tri slova ili krace nisu se mogle pisati.,Chrome,Windows,720,1280,20.39855,,heritage
11,158,condition1,blue_rug,tepih,5844,13,rug,[],39.0,Yes,svedski,,BIH,ijekavica,štokavski,3,1,Da,srpskohrvatski i svedski,Male,preAge8,engleski,Da. Rijeci od tri slova ili krace nisu se mogle pisati.,Chrome,Windows,720,1280,20.39855,,heritage
12,158,condition1,green_drum,dobos,45646,14,drum,[],39.0,Yes,svedski,,BIH,ijekavica,štokavski,3,1,Da,srpskohrvatski i svedski,Male,preAge8,engleski,Da. Rijeci od tri slova ili krace nisu se mogle pisati.,Chrome,Windows,720,1280,20.39855,,heritage
13,158,condition1,orange_fork,viljuska,6253,15,fork,[],39.0,Yes,svedski,,BIH,ijekavica,štokavski,3,1,Da,srpskohrvatski i svedski,Male,preAge8,engleski,Da. Rijeci od tri slova ili krace nisu se mogle pisati.,Chrome,Windows,720,1280,20.39855,,heritage
14,158,condition1,orange_sock,carapa,5471,16,sock,[],39.0,Yes,svedski,,BIH,ijekavica,štokavski,3,1,Da,srpskohrvatski i svedski,Male,preAge8,engleski,Da. Rijeci od tri slova ili krace nisu se mogle pisati.,Chrome,Windows,720,1280,20.39855,,heritage
15,158,condition1,red_table,klupa,13140,17,table,[],39.0,Yes,svedski,,BIH,ijekavica,štokavski,3,1,Da,srpskohrvatski i svedski,Male,preAge8,engleski,Da. Rijeci od tri slova ili krace nisu se mogle pisati.,Chrome,Windows,720,1280,20.39855,,heritage
16,158,condition1,yellow_binder,fascikla,8108,18,binder,[],39.0,Yes,svedski,,BIH,ijekavica,štokavski,3,1,Da,srpskohrvatski i svedski,Male,preAge8,engleski,Da. Rijeci od tri slova ili krace nisu se mogle pisati.,Chrome,Windows,720,1280,20.39855,,heritage
17,158,condition1,yellow_butterfly,leptir,4972,19,butterfly,[],39.0,Yes,svedski,,BIH,ijekavica,štokavski,3,1,Da,srpskohrvatski i svedski,Male,preAge8,engleski,Da. Rijeci od tri slova ili krace nisu se mogle pisati.,Chrome,Windows,720,1280,20.39855,,heritage
18,158,condition1,green_shield,stit,100314,20,shield,[],39.0,Yes,svedski,,BIH,ijekavica,štokavski,3,1,Da,srpskohrvatski i svedski,Male,preAge8,engleski,Da. Rijeci od tri slova ili krace nisu se mogle pisati.,Chrome,Windows,720,1280,20.39855,,heritage
19,158,condition1,green_whistle,zvizdaljka,42755,21,whistle,[],39.0,Yes,svedski,,BIH,ijekavica,štokavski,3,1,Da,srpskohrvatski i svedski,Male,preAge8,engleski,Da. Rijeci od tri slova ili krace nisu se mogle pisati.,Chrome,Windows,720,1280,20.39855,,heritage
20,158,condition1,red_napkin,selveta,11600,22,napkin,[],39.0,Yes,svedski,,BIH,ijekavica,štokavski,3,1,Da,srpskohrvatski i svedski,Male,preAge8,engleski,Da. Rijeci od tri slova ili krace nisu se mogle pisati.,Chrome,Windows,720,1280,20.39855,,heritage
21,158,condition1,blue_candle,sveca,9778,23,candle,[],39.0,Yes,svedski,,BIH,ijekavica,štokavski,3,1,Da,srpskohrvatski i svedski,Male,preAge8,engleski,Da. Rijeci od tri slova ili krace nisu se mogle pisati.,Chrome,Windows,720,1280,20.39855,,heritage
22,158,condition1,red_ring,prsten,5044,24,ring,[],39.0,Yes,svedski,,BIH,ijekavica,štokavski,3,1,Da,srpskohrvatski i svedski,Male,preAge8,engleski,Da. Rijeci od tri slova ili krace nisu se mogle pisati.,Chrome,Windows,720,1280,20.39855,,heritage
23,158,condition1,orange_remote,daljinski,6902,25,remote,[],39.0,Yes,svedski,,BIH,ijekavica,štokavski,3,1,Da,srpskohrvatski i svedski,Male,preAge8,engleski,Da. Rijeci od tri slova ili krace nisu se mogle pisati.,Chrome,Windows,720,1280,20.39855,,heritage
24,158,condition1,orange_ribbon,masna,5025,26,ribbon,[],39.0,Yes,svedski,,BIH,ijekavica,štokavski,3,1,Da,srpskohrvatski i svedski,Male,preAge8,engleski,Da. Rijeci od tri slova ili krace nisu se mogle pisati.,Chrome,Windows,720,1280,20.39855,,heritage
25,158,condition1,green_hammer,cekic,4906,27,hammer,[],39.0,Yes,svedski,,BIH,ijekavica,štokavski,3,1,Da,srpskohrvatski i svedski,Male,preAge8,engleski,Da. Rijeci od tri slova ili krace nisu se mogle pisati.,Chrome,Windows,720,1280,20.39855,,heritage
26,158,condition1,green_shell,skoljka,5115,28,shell,[],39.0,Yes,svedski,,BIH,ijekavica,štokavski,3,1,Da,srpskohrvatski i svedski,Male,preAge8,engleski,Da. Rijeci od tri slova ili krace nisu se mogle pisati.,Chrome,Windows,720,1280,20.39855,,heritage
27,158,condition1,white_shirt,majica,28189,29,shirt,[],39.0,Yes,svedski,,BIH,ijekavica,štokavski,3,1,Da,srpskohrvatski i svedski,Male,preAge8,engleski,Da. Rijeci od tri slova ili krace nisu se mogle pisati.,Chrome,Windows,720,1280,20.39855,,heritage
28,158,condition1,white_clock,jedan sat,25603,30,clock,[],39.0,Yes,svedski,,BIH,ijekavica,štokavski,3,1,Da,srpskohrvatski i svedski,Male,preAge8,engleski,Da. Rijeci od tri slova ili krace nisu se mogle pisati.,Chrome,Windows,720,1280,20.39855,,heritage
29,158,condition1,black_duck,patkica,5248,31,duck,[],39.0,Yes,svedski,,BIH,ijekavica,štokavski,3,1,Da,srpskohrvatski i svedski,Male,preAge8,engleski,Da. Rijeci od tri slova ili krace nisu se mogle pisati.,Chrome,Windows,720,1280,20.39855,,heritage
30,158,condition1,black_bonbon,bonbona,7878,32,bonbon,[],39.0,Yes,svedski,,BIH,ijekavica,štokavski,3,1,Da,srpskohrvatski i svedski,Male,preAge8,engleski,Da. Rijeci od tri slova ili krace nisu se mogle pisati.,Chrome,Windows,720,1280,20.39855,,heritage
31,158,condition1,red_crown,kruna,4487,33,crown,[],39.0,Yes,svedski,,BIH,ijekavica,štokavski,3,1,Da,srpskohrvatski i svedski,Male,preAge8,engleski,Da. Rijeci od tri slova ili krace nisu se mogle pisati.,Chrome,Windows,720,1280,20.39855,,heritage
32,158,condition1,orange_lock,katanac,21231,34,lock,[],39.0,Yes,svedski,,BIH,ijekavica,štokavski,3,1,Da,srpskohrvatski i svedski,Male,preAge8,engleski,Da. Rijeci od tri slova ili krace nisu se mogle pisati.,Chrome,Windows,720,1280,20.39855,,heritage
33,158,condition1,red_ornament,ne znam,16585,35,ornament,[],39.0,Yes,svedski,,BIH,ijekavica,štokavski,3,1,Da,srpskohrvatski i svedski,Male,preAge8,engleski,Da. Rijeci od tri slova ili krace nisu se mogle pisati.,Chrome,Windows,720,1280,20.39855,,heritage
34,158,condition1,yellow_cap,kacket,5979,36,cap,[],39.0,Yes,svedski,,BIH,ijekavica,štokavski,3,1,Da,srpskohrvatski i svedski,Male,preAge8,engleski,Da. Rijeci od tri slova ili krace nisu se mogle pisati.,Chrome,Windows,720,1280,20.39855,,heritage
35,158,condition1,orange_microscope,mikroskop,8689,37,microscope,[],39.0,Yes,svedski,,BIH,ijekavica,štokavski,3,1,Da,srpskohrvatski i svedski,Male,preAge8,engleski,Da. Rijeci od tri slova ili krace nisu se mogle pisati.,Chrome,Windows,720,1280,20.39855,,heritage
36,158,condition1,yellow_lamp,lampa,3448,38,lamp,[],39.0,Yes,svedski,,BIH,ijekavica,štokavski,3,1,Da,srpskohrvatski i svedski,Male,preAge8,engleski,Da. Rijeci od tri slova ili krace nisu se mogle pisati.,Chrome,Windows,720,1280,20.39855,,heritage
37,158,condition1,black_calendar,kalendar,5166,39,calendar,[],39.0,Yes,svedski,,BIH,ijekavica,štokavski,3,1,Da,srpskohrvatski i svedski,Male,preAge8,engleski,Da. Rijeci od tri slova ili krace nisu se mogle pisati.,Chrome,Windows,720,1280,20.39855,,heritage
38,158,condition1,green_bowl,zdjela,21441,40,bowl,[],39.0,Yes,svedski,,BIH,ijekavica,štokavski,3,1,Da,srpskohrvatski i svedski,Male,preAge8,engleski,Da. Rijeci od tri slova ili krace nisu se mogle pisati.,Chrome,Windows,720,1280,20.39855,,heritage
39,158,condition1,orange_truck,kamijon,3931,41,truck,[],39.0,Yes,svedski,,BIH,ijekavica,štokavski,3,1,Da,srpskohrvatski i svedski,Male,preAge8,engleski,Da. Rijeci od tri slova ili krace nisu se mogle pisati.,Chrome,Windows,720,1280,20.39855,,heritage
40,158,condition1,orange_screwdriver,sarafciger,7157,42,screwdriver,[],39.0,Yes,svedski,,BIH,ijekavica,štokavski,3,1,Da,srpskohrvatski i svedski,Male,preAge8,engleski,Da. Rijeci od tri slova ili krace nisu se mogle pisati.,Chrome,Windows,720,1280,20.39855,,heritage
41,158,condition1,green_spoon,kasika,4253,43,spoon,[],39.0,Yes,svedski,,BIH,ijekavica,štokavski,3,1,Da,srpskohrvatski i svedski,Male,preAge8,engleski,Da. Rijeci od tri slova ili krace nisu se mogle pisati.,Chrome,Windows,720,1280,20.39855,,heritage
42,158,condition1,black_radio,radio,5180,44,radio,[],39.0,Yes,svedski,,BIH,ijekavica,štokavski,3,1,Da,srpskohrvatski i svedski,Male,preAge8,engleski,Da. Rijeci od tri slova ili krace nisu se mogle pisati.,Chrome,Windows,720,1280,20.39855,,heritage
43,158,condition1,red_present,poklon,4156,45,present,[],39.0,Yes,svedski,,BIH,ijekavica,štokavski,3,1,Da,srpskohrvatski i svedski,Male,preAge8,engleski,Da. Rijeci od tri slova ili krace nisu se mogle pisati.,Chrome,Windows,720,1280,20.39855,,heritage
44,158,condition1,red_belt,kajis,6626,46,belt,[],39.0,Yes,svedski,,BIH,ijekavica,štokavski,3,1,Da,srpskohrvatski i svedski,Male,preAge8,engleski,Da. Rijeci od tri slova ili krace nisu se mogle pisati.,Chrome,Windows,720,1280,20.39855,,heritage
45,158,condition1,green_binoculars,dvogled,5281,47,binoculars,[],39.0,Yes,svedski,,BIH,ijekavica,štokavski,3,1,Da,srpskohrvatski i svedski,Male,preAge8,engleski,Da. Rijeci od tri slova ili krace nisu se mogle pisati.,Chrome,Windows,720,1280,20.39855,,heritage
46,158,condition1,orange_necklace,ogrlica,22928,48,necklace,[],39.0,Yes,svedski,,BIH,ijekavica,štokavski,3,1,Da,srpskohrvatski i svedski,Male,preAge8,engleski,Da. Rijeci od tri slova ili krace nisu se mogle pisati.,Chrome,Windows,720,1280,20.39855,,heritage
47,158,condition1,orange_sponge,spuzva,8376,49,sponge,[],39.0,Yes,svedski,,BIH,ijekavica,štokavski,3,1,Da,srpskohrvatski i svedski,Male,preAge8,engleski,Da. Rijeci od tri slova ili krace nisu se mogle pisati.,Chrome,Windows,720,1280,20.39855,,heritage
48,158,condition1,yellow_mouse,mis za kompjuter,18726,50,mouse,[],39.0,Yes,svedski,,BIH,ijekavica,štokavski,3,1,Da,srpskohrvatski i svedski,Male,preAge8,engleski,Da. Rijeci od tri slova ili krace nisu se mogle pisati.,Chrome,Windows,720,1280,20.39855,,heritage
49,158,condition1,white_phone,telefon,4546,51,phone,[],39.0,Yes,svedski,,BIH,ijekavica,štokavski,3,1,Da,srpskohrvatski i svedski,Male,preAge8,engleski,Da. Rijeci od tri slova ili krace nisu se mogle pisati.,Chrome,Windows,720,1280,20.39855,,heritage
50,158,condition1,purple_box,kutija,4557,52,box,[],39.0,Yes,svedski,,BIH,ijekavica,štokavski,3,1,Da,srpskohrvatski i svedski,Male,preAge8,engleski,Da. Rijeci od tri slova ili krace nisu se mogle pisati.,Chrome,Windows,720,1280,20.39855,,heritage
51,158,condition1,red_dress,haljina,6340,53,dress,[],39.0,Yes,svedski,,BIH,ijekavica,štokavski,3,1,Da,srpskohrvatski i svedski,Male,preAge8,engleski,Da. Rijeci od tri slova ili krace nisu se mogle pisati.,Chrome,Windows,720,1280,20.39855,,heritage
52,158,condition1,purple_die,kockica,4814,54,die,[],39.0,Yes,svedski,,BIH,ijekavica,štokavski,3,1,Da,srpskohrvatski i svedski,Male,preAge8,engleski,Da. Rijeci od tri slova ili krace nisu se mogle pisati.,Chrome,Windows,720,1280,20.39855,,heritage
53,158,condition1,orange_tie,kravata,4299,55,tie,[],39.0,Yes,svedski,,BIH,ijekavica,štokavski,3,1,Da,srpskohrvatski i svedski,Male,preAge8,engleski,Da. Rijeci od tri slova ili krace nisu se mogle pisati.,Chrome,Windows,720,1280,20.39855,,heritage
54,158,condition1,white_calculator,digitron,6053,56,calculator,[],39.0,Yes,svedski,,BIH,ijekavica,štokavski,3,1,Da,srpskohrvatski i svedski,Male,preAge8,engleski,Da. Rijeci od tri slova ili krace nisu se mogle pisati.,Chrome,Windows,720,1280,20.39855,,heritage
55,158,condition1,blue_sword,sablja,10345,57,sword,[],39.0,Yes,svedski,,BIH,ijekavica,štokavski,3,1,Da,srpskohrvatski i svedski,Male,preAge8,engleski,Da. Rijeci od tri slova ili krace nisu se mogle pisati.,Chrome,Windows,720,1280,20.39855,,heritage
56,158,condition1,red_stapler,heftarica,6855,58,stapler,[],39.0,Yes,svedski,,BIH,ijekavica,štokavski,3,1,Da,srpskohrvatski i svedski,Male,preAge8,engleski,Da. Rijeci od tri slova ili krace nisu se mogle pisati.,Chrome,Windows,720,1280,20.39855,,heritage
57,158,condition1,red_guitar,gitara,4250,59,guitar,[],39.0,Yes,svedski,,BIH,ijekavica,štokavski,3,1,Da,srpskohrvatski i svedski,Male,preAge8,engleski,Da. Rijeci od tri slova ili krace nisu se mogle pisati.,Chrome,Windows,720,1280,20.39855,,heritage
58,158,condition1,yellow_iron,pegla,4323,60,iron,[],39.0,Yes,svedski,,BIH,ijekavica,štokavski,3,1,Da,srpskohrvatski i svedski,Male,preAge8,engleski,Da. Rijeci od tri slova ili krace nisu se mogle pisati.,Chrome,Windows,720,1280,20.39855,,heritage
59,158,condition1,blue_mask,maska,6270,61,mask,[],39.0,Yes,svedski,,BIH,ijekavica,štokavski,3,1,Da,srpskohrvatski i svedski,Male,preAge8,engleski,Da. Rijeci od tri slova ili krace nisu se mogle pisati.,Chrome,Windows,720,1280,20.39855,,heritage
60,158,condition1,red_bucket,kanta,7998,62,bucket,[],39.0,Yes,svedski,,BIH,ijekavica,štokavski,3,1,Da,srpskohrvatski i svedski,Male,preAge8,engleski,Da. Rijeci od tri slova ili krace nisu se mogle pisati.,Chrome,Windows,720,1280,20.39855,,heritage
61,158,condition1,yellow_armchair,fotelja,4583,63,armchair,[],39.0,Yes,svedski,,BIH,ijekavica,štokavski,3,1,Da,srpskohrvatski i svedski,Male,preAge8,engleski,Da. Rijeci od tri slova ili krace nisu se mogle pisati.,Chrome,Windows,720,1280,20.39855,,heritage
62,158,condition1,white_frame,okvir,4635,64,frame,[],39.0,Yes,svedski,,BIH,ijekavica,štokavski,3,1,Da,srpskohrvatski i svedski,Male,preAge8,engleski,Da. Rijeci od tri slova ili krace nisu se mogle pisati.,Chrome,Windows,720,1280,20.39855,,heritage
63,158,condition1,yellow_pencil,olovka,4307,65,pencil,[],39.0,Yes,svedski,,BIH,ijekavica,štokavski,3,1,Da,srpskohrvatski i svedski,Male,preAge8,engleski,Da. Rijeci od tri slova ili krace nisu se mogle pisati.,Chrome,Windows,720,1280,20.39855,,heritage
64,158,condition1,green_dresser,regal,5844,66,dresser,[],39.0,Yes,svedski,,BIH,ijekavica,štokavski,3,1,Da,srpskohrvatski i svedski,Male,preAge8,engleski,Da. Rijeci od tri slova ili krace nisu se mogle pisati.,Chrome,Windows,720,1280,20.39855,,heritage
65,158,condition1,yellow_switch,ne znam,10012,67,switch,[],39.0,Yes,svedski,,BIH,ijekavica,štokavski,3,1,Da,srpskohrvatski i svedski,Male,preAge8,engleski,Da. Rijeci od tri slova ili krace nisu se mogle pisati.,Chrome,Windows,720,1280,20.39855,,heritage
66,158,condition1,red_ruler,lenjir,8380,68,ruler,[],39.0,Yes,svedski,,BIH,ijekavica,štokavski,3,1,Da,srpskohrvatski i svedski,Male,preAge8,engleski,Da. Rijeci od tri slova ili krace nisu se mogle pisati.,Chrome,Windows,720,1280,20.39855,,heritage
67,158,condition1,red_mug,solja,4537,69,mug,[],39.0,Yes,svedski,,BIH,ijekavica,štokavski,3,1,Da,srpskohrvatski i svedski,Male,preAge8,engleski,Da. Rijeci od tri slova ili krace nisu se mogle pisati.,Chrome,Windows,720,1280,20.39855,,heritage
68,158,condition1,green_fish,riba,4275,70,fish,[],39.0,Yes,svedski,,BIH,ijekavica,štokavski,3,1,Da,srpskohrvatski i svedski,Male,preAge8,engleski,Da. Rijeci od tri slova ili krace nisu se mogle pisati.,Chrome,Windows,720,1280,20.39855,,heritage
69,158,condition1,purple_rope,konop,5703,71,rope,[],39.0,Yes,svedski,,BIH,ijekavica,štokavski,3,1,Da,srpskohrvatski i svedski,Male,preAge8,engleski,Da. Rijeci od tri slova ili krace nisu se mogle pisati.,Chrome,Windows,720,1280,20.39855,,heritage
70,158,condition1,blue_scarf,zasto ne mogu da pisem reci od tri slova ili krace?,42608,72,scarf,[],39.0,Yes,svedski,,BIH,ijekavica,štokavski,3,1,Da,srpskohrvatski i svedski,Male,preAge8,engleski,Da. Rijeci od tri slova ili krace nisu se mogle pisati.,Chrome,Windows,720,1280,20.39855,,heritage
71,158,condition1,purple_plate,tanjir,6078,73,plate,[],39.0,Yes,svedski,,BIH,ijekavica,štokavski,3,1,Da,srpskohrvatski i svedski,Male,preAge8,engleski,Da. Rijeci od tri slova ili krace nisu se mogle pisati.,Chrome,Windows,720,1280,20.39855,,heritage
72,158,condition1,yellow_book,knjiga,6120,74,book,[],39.0,Yes,svedski,,BIH,ijekavica,štokavski,3,1,Da,srpskohrvatski i svedski,Male,preAge8,engleski,Da. Rijeci od tri slova ili krace nisu se mogle pisati.,Chrome,Windows,720,1280,20.39855,,heritage
73,158,condition1,orange_camera,kamera,3957,75,camera,[],39.0,Yes,svedski,,BIH,ijekavica,štokavski,3,1,Da,srpskohrvatski i svedski,Male,preAge8,engleski,Da. Rijeci od tri slova ili krace nisu se mogle pisati.,Chrome,Windows,720,1280,20.39855,,heritage
74,158,condition1,blue_fence,ograda,4633,76,fence,[],39.0,Yes,svedski,,BIH,ijekavica,štokavski,3,1,Da,srpskohrvatski i svedski,Male,preAge8,engleski,Da. Rijeci od tri slova ili krace nisu se mogle pisati.,Chrome,Windows,720,1280,20.39855,,heritage
75,158,condition1,green_cake,torta,4608,77,cake,[],39.0,Yes,svedski,,BIH,ijekavica,štokavski,3,1,Da,srpskohrvatski i svedski,Male,preAge8,engleski,Da. Rijeci od tri slova ili krace nisu se mogle pisati.,Chrome,Windows,720,1280,20.39855,,heritage
76,158,condition1,green_lipstick,karmin,3741,78,lipstick,[],39.0,Yes,svedski,,BIH,ijekavica,štokavski,3,1,Da,srpskohrvatski i svedski,Male,preAge8,engleski,Da. Rijeci od tri slova ili krace nisu se mogle pisati.,Chrome,Windows,720,1280,20.39855,,heritage
77,158,condition1,red_bike,biciklo,4120,79,bike,[],39.0,Yes,svedski,,BIH,ijekavica,štokavski,3,1,Da,srpskohrvatski i svedski,Male,preAge8,engleski,Da. Rijeci od tri slova ili krace nisu se mogle pisati.,Chrome,Windows,720,1280,20.39855,,heritage
78,158,condition1,green_piano,klavir,4854,80,piano,[],39.0,Yes,svedski,,BIH,ijekavica,štokavski,3,1,Da,srpskohrvatski i svedski,Male,preAge8,engleski,Da. Rijeci od tri slova ili krace nisu se mogle pisati.,Chrome,Windows,720,1280,20.39855,,heritage
79,158,condition1,yellow_flower,cvece,5411,81,flower,[],39.0,Yes,svedski,,BIH,ijekavica,štokavski,3,1,Da,srpskohrvatski i svedski,Male,preAge8,engleski,Da. Rijeci od tri slova ili krace nisu se mogle pisati.,Chrome,Windows,720,1280,20.39855,,heritage
80,158,condition1,white_comb,cesalj,5317,82,comb,[],39.0,Yes,svedski,,BIH,ijekavica,štokavski,3,1,Da,srpskohrvatski i svedski,Male,preAge8,engleski,Da. Rijeci od tri slova ili krace nisu se mogle pisati.,Chrome,Windows,720,1280,20.39855,,heritage
81,158,condition1,green_robot,robot,4038,83,robot,[],39.0,Yes,svedski,,BIH,ijekavica,štokavski,3,1,Da,srpskohrvatski i svedski,Male,preAge8,engleski,Da. Rijeci od tri slova ili krace nisu se mogle pisati.,Chrome,Windows,720,1280,20.39855,,heritage
82,158,condition1,blue_coathanger,ofinger,4715,84,coathanger,[],39.0,Yes,svedski,,BIH,ijekavica,štokavski,3,1,Da,srpskohrvatski i svedski,Male,preAge8,engleski,Da. Rijeci od tri slova ili krace nisu se mogle pisati.,Chrome,Windows,720,1280,20.39855,,heritage
83,158,condition1,purple_bandaid,hanzoplast,6732,85,bandaid,[],39.0,Yes,svedski,,BIH,ijekavica,štokavski,3,1,Da,srpskohrvatski i svedski,Male,preAge8,engleski,Da. Rijeci od tri slova ili krace nisu se mogle pisati.,Chrome,Windows,720,1280,20.39855,,heritage
84,158,condition1,orange_slipper,papuca,4712,86,slipper,[],39.0,Yes,svedski,,BIH,ijekavica,štokavski,3,1,Da,srpskohrvatski i svedski,Male,preAge8,engleski,Da. Rijeci od tri slova ili krace nisu se mogle pisati.,Chrome,Windows,720,1280,20.39855,,heritage
85,158,condition1,purple_glove,rukavica,4963,87,glove,[],39.0,Yes,svedski,,BIH,ijekavica,štokavski,3,1,Da,srpskohrvatski i svedski,Male,preAge8,engleski,Da. Rijeci od tri slova ili krace nisu se mogle pisati.,Chrome,Windows,720,1280,20.39855,,heritage
86,158,condition1,green_airplane,avijon,5715,88,airplane,[],39.0,Yes,svedski,,BIH,ijekavica,štokavski,3,1,Da,srpskohrvatski i svedski,Male,preAge8,engleski,Da. Rijeci od tri slova ili krace nisu se mogle pisati.,Chrome,Windows,720,1280,20.39855,,heritage
87,158,condition1,yellow_chair,stolivca,5064,89,chair,[],39.0,Yes,svedski,,BIH,ijekavica,štokavski,3,1,Da,srpskohrvatski i svedski,Male,preAge8,engleski,Da. Rijeci od tri slova ili krace nisu se mogle pisati.,Chrome,Windows,720,1280,20.39855,,heritage
88,158,condition1,yellow_bracelet,narukvica,18052,90,bracelet,[],39.0,Yes,svedski,,BIH,ijekavica,štokavski,3,1,Da,srpskohrvatski i svedski,Male,preAge8,engleski,Da. Rijeci od tri slova ili krace nisu se mogle pisati.,Chrome,Windows,720,1280,20.39855,,heritage
89,158,condition1,green_knife,ovo je noz,9740,91,knife,[],39.0,Yes,svedski,,BIH,ijekavica,štokavski,3,1,Da,srpskohrvatski i svedski,Male,preAge8,engleski,Da. Rijeci od tri slova ili krace nisu se mogle pisati.,Chrome,Windows,720,1280,20.39855,,heritage
90,158,condition1,purple_shovel,lopata,4187,92,shovel,[],39.0,Yes,svedski,,BIH,ijekavica,štokavski,3,1,Da,srpskohrvatski i svedski,Male,preAge8,engleski,Da. Rijeci od tri slova ili krace nisu se mogle pisati.,Chrome,Windows,720,1280,20.39855,,heritage
91,158,condition1,green_helicopter,helikopter,7619,93,helicopter,[],39.0,Yes,svedski,,BIH,ijekavica,štokavski,3,1,Da,srpskohrvatski i svedski,Male,preAge8,engleski,Da. Rijeci od tri slova ili krace nisu se mogle pisati.,Chrome,Windows,720,1280,20.39855,,heritage
92,158,condition1,white_magnifyingglass,povecalo,5134,94,magnifyingglass,[],39.0,Yes,svedski,,BIH,ijekavica,štokavski,3,1,Da,srpskohrvatski i svedski,Male,preAge8,engleski,Da. Rijeci od tri slova ili krace nisu se mogle pisati.,Chrome,Windows,720,1280,20.39855,,heritage
93,158,condition1,purple_ladle,ne znam,28804,95,ladle,[],39.0,Yes,svedski,,BIH,ijekavica,štokavski,3,1,Da,srpskohrvatski i svedski,Male,preAge8,engleski,Da. Rijeci od tri slova ili krace nisu se mogle pisati.,Chrome,Windows,720,1280,20.39855,,heritage
94,158,condition1,white_wallet,novcanik,11440,96,wallet,[],39.0,Yes,svedski,,BIH,ijekavica,štokavski,3,1,Da,srpskohrvatski i svedski,Male,preAge8,engleski,Da. Rijeci od tri slova ili krace nisu se mogle pisati.,Chrome,Windows,720,1280,20.39855,,heritage
95,158,condition1,red_billiardball,ne znam,6002,97,billiardball,[],39.0,Yes,svedski,,BIH,ijekavica,štokavski,3,1,Da,srpskohrvatski i svedski,Male,preAge8,engleski,Da. Rijeci od tri slova ili krace nisu se mogle pisati.,Chrome,Windows,720,1280,20.39855,,heritage
96,158,condition1,yellow_yarn,vuna,4099,98,yarn,[],39.0,Yes,svedski,,BIH,ijekavica,štokavski,3,1,Da,srpskohrvatski i svedski,Male,preAge8,engleski,Da. Rijeci od tri slova ili krace nisu se mogle pisati.,Chrome,Windows,720,1280,20.39855,,heritage
97,158,condition1,red_shoe,cipela,8398,99,shoe,[],39.0,Yes,svedski,,BIH,ijekavica,štokavski,3,1,Da,srpskohrvatski i svedski,Male,preAge8,engleski,Da. Rijeci od tri slova ili krace nisu se mogle pisati.,Chrome,Windows,720,1280,20.39855,,heritage
98,158,condition1,blue_dustpan,lopatica,8215,100,dustpan,[],39.0,Yes,svedski,,BIH,ijekavica,štokavski,3,1,Da,srpskohrvatski i svedski,Male,preAge8,engleski,Da. Rijeci od tri slova ili krace nisu se mogle pisati.,Chrome,Windows,720,1280,20.39855,,heritage
99,158,condition1,yellow_fryingpan,tava,3886,101,fryingpan,[],39.0,Yes,svedski,,BIH,ijekavica,štokavski,3,1,Da,srpskohrvatski i svedski,Male,preAge8,engleski,Da. Rijeci od tri slova ili krace nisu se mogle pisati.,Chrome,Windows,720,1280,20.39855,,heritage
100,158,condition1,orange_boot,cizma,7405,102,boot,[],39.0,Yes,svedski,,BIH,ijekavica,štokavski,3,1,Da,srpskohrvatski i svedski,Male,preAge8,engleski,Da. Rijeci od tri slova ili krace nisu se mogle pisati.,Chrome,Windows,720,1280,20.39855,,heritage
101,158,condition1,white_door,vrata,4036,103,door,[],39.0,Yes,svedski,,BIH,ijekavica,štokavski,3,1,Da,srpskohrvatski i svedski,Male,preAge8,engleski,Da. Rijeci od tri slova ili krace nisu se mogle pisati.,Chrome,Windows,720,1280,20.39855,,heritage
102,158,condition1,red_cushion,jastuk,3983,104,cushion,[],39.0,Yes,svedski,,BIH,ijekavica,štokavski,3,1,Da,srpskohrvatski i svedski,Male,preAge8,engleski,Da. Rijeci od tri slova ili krace nisu se mogle pisati.,Chrome,Windows,720,1280,20.39855,,heritage
103,158,condition1,green_bench,klupa,4068,105,bench,[],39.0,Yes,svedski,,BIH,ijekavica,štokavski,3,1,Da,srpskohrvatski i svedski,Male,preAge8,engleski,Da. Rijeci od tri slova ili krace nisu se mogle pisati.,Chrome,Windows,720,1280,20.39855,,heritage
104,158,condition1,black_tv,televizor,5356,106,tv,[],39.0,Yes,svedski,,BIH,ijekavica,štokavski,3,1,Da,srpskohrvatski i svedski,Male,preAge8,engleski,Da. Rijeci od tri slova ili krace nisu se mogle pisati.,Chrome,Windows,720,1280,20.39855,,heritage
105,156,condition1,orange_microscope,mikroskop,4265,2,microscope,[],25.0,Yes,hrvatski,,HR,ijekavica,štokavski,4,2,da,hrvatski,Female,preAndPostAge8,"engleski, njemacki",ne,Chrome,Windows,720,1280,8.7709,,native
106,156,condition1,orange_purse,"
torbiva",4871,3,purse,[],25.0,Yes,hrvatski,,HR,ijekavica,štokavski,4,2,da,hrvatski,Female,preAndPostAge8,"engleski, njemacki",ne,Chrome,Windows,720,1280,8.7709,,native
107,156,condition1,black_bandaid,"
flaster",4219,4,bandaid,[],25.0,Yes,hrvatski,,HR,ijekavica,štokavski,4,2,da,hrvatski,Female,preAndPostAge8,"engleski, njemacki",ne,Chrome,Windows,720,1280,8.7709,,native
108,156,condition1,purple_shell,"
skoljka",2388,5,shell,[],25.0,Yes,hrvatski,,HR,ijekavica,štokavski,4,2,da,hrvatski,Female,preAndPostAge8,"engleski, njemacki",ne,Chrome,Windows,720,1280,8.7709,,native
109,156,condition1,white_book,"
knjiga",3546,6,book,[],25.0,Yes,hrvatski,,HR,ijekavica,štokavski,4,2,da,hrvatski,Female,preAndPostAge8,"engleski, njemacki",ne,Chrome,Windows,720,1280,8.7709,,native
110,156,condition1,white_clock,"
sat",3588,7,clock,[],25.0,Yes,hrvatski,,HR,ijekavica,štokavski,4,2,da,hrvatski,Female,preAndPostAge8,"engleski, njemacki",ne,Chrome,Windows,720,1280,8.7709,,native
111,156,condition1,blue_butterfly,"
leptir",2430,8,butterfly,[],25.0,Yes,hrvatski,,HR,ijekavica,štokavski,4,2,da,hrvatski,Female,preAndPostAge8,"engleski, njemacki",ne,Chrome,Windows,720,1280,8.7709,,native
112,156,condition1,red_balloon,"
balon",2369,9,balloon,[],25.0,Yes,hrvatski,,HR,ijekavica,štokavski,4,2,da,hrvatski,Female,preAndPostAge8,"engleski, njemacki",ne,Chrome,Windows,720,1280,8.7709,,native
113,156,condition1,black_razor,"
britvica",6383,10,razor,[],25.0,Yes,hrvatski,,HR,ijekavica,štokavski,4,2,da,hrvatski,Female,preAndPostAge8,"engleski, njemacki",ne,Chrome,Windows,720,1280,8.7709,,native
114,156,condition1,green_screwdriver,"
sarafciger",7444,11,screwdriver,[],25.0,Yes,hrvatski,,HR,ijekavica,štokavski,4,2,da,hrvatski,Female,preAndPostAge8,"engleski, njemacki",ne,Chrome,Windows,720,1280,8.7709,,native
115,156,condition1,white_fence,"
ograda",2988,12,fence,[],25.0,Yes,hrvatski,,HR,ijekavica,štokavski,4,2,da,hrvatski,Female,preAndPostAge8,"engleski, njemacki",ne,Chrome,Windows,720,1280,8.7709,,native
116,156,condition1,purple_cake,"
torta",1918,13,cake,[],25.0,Yes,hrvatski,,HR,ijekavica,štokavski,4,2,da,hrvatski,Female,preAndPostAge8,"engleski, njemacki",ne,Chrome,Windows,720,1280,8.7709,,native
117,156,condition1,green_drum,"
bubanj",2492,14,drum,[],25.0,Yes,hrvatski,,HR,ijekavica,štokavski,4,2,da,hrvatski,Female,preAndPostAge8,"engleski, njemacki",ne,Chrome,Windows,720,1280,8.7709,,native
118,156,condition1,red_dress,"
haljina",4482,15,dress,[],25.0,Yes,hrvatski,,HR,ijekavica,štokavski,4,2,da,hrvatski,Female,preAndPostAge8,"engleski, njemacki",ne,Chrome,Windows,720,1280,8.7709,,native
119,156,condition1,red_crown,"
kruna",1717,16,crown,[],25.0,Yes,hrvatski,,HR,ijekavica,štokavski,4,2,da,hrvatski,Female,preAndPostAge8,"engleski, njemacki",ne,Chrome,Windows,720,1280,8.7709,,native
120,156,condition1,white_yarn,"
vuna",2894,17,yarn,[],25.0,Yes,hrvatski,,HR,ijekavica,štokavski,4,2,da,hrvatski,Female,preAndPostAge8,"engleski, njemacki",ne,Chrome,Windows,720,1280,8.7709,,native
121,156,condition1,purple_tent,"
sator",2827,18,tent,[],25.0,Yes,hrvatski,,HR,ijekavica,štokavski,4,2,da,hrvatski,Female,preAndPostAge8,"engleski, njemacki",ne,Chrome,Windows,720,1280,8.7709,,native
122,156,condition1,white_belt,"
pojas",2790,19,belt,[],25.0,Yes,hrvatski,,HR,ijekavica,štokavski,4,2,da,hrvatski,Female,preAndPostAge8,"engleski, njemacki",ne,Chrome,Windows,720,1280,8.7709,,native
123,156,condition1,green_sponge,"
spuzva",2594,20,sponge,[],25.0,Yes,hrvatski,,HR,ijekavica,štokavski,4,2,da,hrvatski,Female,preAndPostAge8,"engleski, njemacki",ne,Chrome,Windows,720,1280,8.7709,,native
124,156,condition1,yellow_notebook,"
biljeznica",5510,21,notebook,[],25.0,Yes,hrvatski,,HR,ijekavica,štokavski,4,2,da,hrvatski,Female,preAndPostAge8,"engleski, njemacki",ne,Chrome,Windows,720,1280,8.7709,,native
125,156,condition1,purple_luggage,"
torba",6105,22,luggage,[],25.0,Yes,hrvatski,,HR,ijekavica,štokavski,4,2,da,hrvatski,Female,preAndPostAge8,"engleski, njemacki",ne,Chrome,Windows,720,1280,8.7709,,native
126,156,condition1,red_flower,"
cvijet",2483,23,flower,[],25.0,Yes,hrvatski,,HR,ijekavica,štokavski,4,2,da,hrvatski,Female,preAndPostAge8,"engleski, njemacki",ne,Chrome,Windows,720,1280,8.7709,,native
127,156,condition1,green_ladle,"
zaimaca",3475,24,ladle,[],25.0,Yes,hrvatski,,HR,ijekavica,štokavski,4,2,da,hrvatski,Female,preAndPostAge8,"engleski, njemacki",ne,Chrome,Windows,720,1280,8.7709,,native
128,156,condition1,orange_bench,"
klupic",3641,25,bench,[],25.0,Yes,hrvatski,,HR,ijekavica,štokavski,4,2,da,hrvatski,Female,preAndPostAge8,"engleski, njemacki",ne,Chrome,Windows,720,1280,8.7709,,native
129,156,condition1,yellow_scarf,"
sal",2028,26,scarf,[],25.0,Yes,hrvatski,,HR,ijekavica,štokavski,4,2,da,hrvatski,Female,preAndPostAge8,"engleski, njemacki",ne,Chrome,Windows,720,1280,8.7709,,native
130,156,condition1,yellow_bracelet,"
narukvica",3295,27,bracelet,[],25.0,Yes,hrvatski,,HR,ijekavica,štokavski,4,2,da,hrvatski,Female,preAndPostAge8,"engleski, njemacki",ne,Chrome,Windows,720,1280,8.7709,,native
131,156,condition1,purple_duck,"
gumena patka",5284,28,duck,[],25.0,Yes,hrvatski,,HR,ijekavica,štokavski,4,2,da,hrvatski,Female,preAndPostAge8,"engleski, njemacki",ne,Chrome,Windows,720,1280,8.7709,,native
132,156,condition1,black_truck,"
kamion",2369,29,truck,[],25.0,Yes,hrvatski,,HR,ijekavica,štokavski,4,2,da,hrvatski,Female,preAndPostAge8,"engleski, njemacki",ne,Chrome,Windows,720,1280,8.7709,,native
133,156,condition1,purple_sock,"
carapa",3002,30,sock,[],25.0,Yes,hrvatski,,HR,ijekavica,štokavski,4,2,da,hrvatski,Female,preAndPostAge8,"engleski, njemacki",ne,Chrome,Windows,720,1280,8.7709,,native
134,156,condition1,yellow_dustpan,"
skavacera",7769,31,dustpan,[],25.0,Yes,hrvatski,,HR,ijekavica,štokavski,4,2,da,hrvatski,Female,preAndPostAge8,"engleski, njemacki",ne,Chrome,Windows,720,1280,8.7709,,native
135,156,condition1,purple_boot,"
cipela",5252,32,boot,[],25.0,Yes,hrvatski,,HR,ijekavica,štokavski,4,2,da,hrvatski,Female,preAndPostAge8,"engleski, njemacki",ne,Chrome,Windows,720,1280,8.7709,,native
136,156,condition1,orange_tie,"
kravala",2855,33,tie,[],25.0,Yes,hrvatski,,HR,ijekavica,štokavski,4,2,da,hrvatski,Female,preAndPostAge8,"engleski, njemacki",ne,Chrome,Windows,720,1280,8.7709,,native
137,156,condition1,orange_radio,"
radio",5354,34,radio,[],25.0,Yes,hrvatski,,HR,ijekavica,štokavski,4,2,da,hrvatski,Female,preAndPostAge8,"engleski, njemacki",ne,Chrome,Windows,720,1280,8.7709,,native
138,156,condition1,red_sword,"
mac",5153,35,sword,[],25.0,Yes,hrvatski,,HR,ijekavica,štokavski,4,2,da,hrvatski,Female,preAndPostAge8,"engleski, njemacki",ne,Chrome,Windows,720,1280,8.7709,,native
139,156,condition1,orange_shovel,"
lopat",5776,36,shovel,[],25.0,Yes,hrvatski,,HR,ijekavica,štokavski,4,2,da,hrvatski,Female,preAndPostAge8,"engleski, njemacki",ne,Chrome,Windows,720,1280,8.7709,,native
140,156,condition1,purple_bonbon,bonbon,8197,37,bonbon,[],25.0,Yes,hrvatski,,HR,ijekavica,štokavski,4,2,da,hrvatski,Female,preAndPostAge8,"engleski, njemacki",ne,Chrome,Windows,720,1280,8.7709,,native
141,156,condition1,purple_lipstick,"
ruz",1758,38,lipstick,[],25.0,Yes,hrvatski,,HR,ijekavica,štokavski,4,2,da,hrvatski,Female,preAndPostAge8,"engleski, njemacki",ne,Chrome,Windows,720,1280,8.7709,,native
142,156,condition1,yellow_fryingpan,"
tava",5878,39,fryingpan,[],25.0,Yes,hrvatski,,HR,ijekavica,štokavski,4,2,da,hrvatski,Female,preAndPostAge8,"engleski, njemacki",ne,Chrome,Windows,720,1280,8.7709,,native
143,156,condition1,blue_phone,"
telefon",4302,40,phone,[],25.0,Yes,hrvatski,,HR,ijekavica,štokavski,4,2,da,hrvatski,Female,preAndPostAge8,"engleski, njemacki",ne,Chrome,Windows,720,1280,8.7709,,native
144,156,condition1,green_tv,"
televizija",3240,41,tv,[],25.0,Yes,hrvatski,,HR,ijekavica,štokavski,4,2,da,hrvatski,Female,preAndPostAge8,"engleski, njemacki",ne,Chrome,Windows,720,1280,8.7709,,native
145,156,condition1,white_coathanger,vješalica,26366,42,coathanger,[],25.0,Yes,hrvatski,,HR,ijekavica,štokavski,4,2,da,hrvatski,Female,preAndPostAge8,"engleski, njemacki",ne,Chrome,Windows,720,1280,8.7709,,native
146,156,condition1,green_remote,"
daljinski",2740,43,remote,[],25.0,Yes,hrvatski,,HR,ijekavica,štokavski,4,2,da,hrvatski,Female,preAndPostAge8,"engleski, njemacki",ne,Chrome,Windows,720,1280,8.7709,,native
147,156,condition1,yellow_key,"
kljc",2258,44,key,[],25.0,Yes,hrvatski,,HR,ijekavica,štokavski,4,2,da,hrvatski,Female,preAndPostAge8,"engleski, njemacki",ne,Chrome,Windows,720,1280,8.7709,,native
148,156,condition1,black_spoon,"
zaimaca",4771,45,spoon,[],25.0,Yes,hrvatski,,HR,ijekavica,štokavski,4,2,da,hrvatski,Female,preAndPostAge8,"engleski, njemacki",ne,Chrome,Windows,720,1280,8.7709,,native
149,156,condition1,green_box,"
kutija",3682,46,box,[],25.0,Yes,hrvatski,,HR,ijekavica,štokavski,4,2,da,hrvatski,Female,preAndPostAge8,"engleski, njemacki",ne,Chrome,Windows,720,1280,8.7709,,native
150,156,condition1,yellow_magnifyingglass,"
povecalo",2514,47,magnifyingglass,[],25.0,Yes,hrvatski,,HR,ijekavica,štokavski,4,2,da,hrvatski,Female,preAndPostAge8,"engleski, njemacki",ne,Chrome,Windows,720,1280,8.7709,,native
151,156,condition1,blue_switch,"
prekidax",3050,48,switch,[],25.0,Yes,hrvatski,,HR,ijekavica,štokavski,4,2,da,hrvatski,Female,preAndPostAge8,"engleski, njemacki",ne,Chrome,Windows,720,1280,8.7709,,native
152,156,condition1,black_die,"
kocka",4327,49,die,[],25.0,Yes,hrvatski,,HR,ijekavica,štokavski,4,2,da,hrvatski,Female,preAndPostAge8,"engleski, njemacki",ne,Chrome,Windows,720,1280,8.7709,,native
153,156,condition1,yellow_table,"
klupa",2984,50,table,[],25.0,Yes,hrvatski,,HR,ijekavica,štokavski,4,2,da,hrvatski,Female,preAndPostAge8,"engleski, njemacki",ne,Chrome,Windows,720,1280,8.7709,,native
154,156,condition1,green_vase,"
vaza",1934,51,vase,[],25.0,Yes,hrvatski,,HR,ijekavica,štokavski,4,2,da,hrvatski,Female,preAndPostAge8,"engleski, njemacki",ne,Chrome,Windows,720,1280,8.7709,,native
155,156,condition1,orange_whistle,"
zvizdaljka",3738,52,whistle,[],25.0,Yes,hrvatski,,HR,ijekavica,štokavski,4,2,da,hrvatski,Female,preAndPostAge8,"engleski, njemacki",ne,Chrome,Windows,720,1280,8.7709,,native
156,156,condition1,purple_ribbon,"
masna",2451,53,ribbon,[],25.0,Yes,hrvatski,,HR,ijekavica,štokavski,4,2,da,hrvatski,Female,preAndPostAge8,"engleski, njemacki",ne,Chrome,Windows,720,1280,8.7709,,native
157,156,condition1,white_mask,"
maska",3773,54,mask,[],25.0,Yes,hrvatski,,HR,ijekavica,štokavski,4,2,da,hrvatski,Female,preAndPostAge8,"engleski, njemacki",ne,Chrome,Windows,720,1280,8.7709,,native
158,156,condition1,black_fish,"
riba",2224,55,fish,[],25.0,Yes,hrvatski,,HR,ijekavica,štokavski,4,2,da,hrvatski,Female,preAndPostAge8,"engleski, njemacki",ne,Chrome,Windows,720,1280,8.7709,,native
159,156,condition1,black_piano,"
klavir",2183,56,piano,[],25.0,Yes,hrvatski,,HR,ijekavica,štokavski,4,2,da,hrvatski,Female,preAndPostAge8,"engleski, njemacki",ne,Chrome,Windows,720,1280,8.7709,,native
160,156,condition1,purple_plate,"
tanjur",2791,57,plate,[],25.0,Yes,hrvatski,,HR,ijekavica,štokavski,4,2,da,hrvatski,Female,preAndPostAge8,"engleski, njemacki",ne,Chrome,Windows,720,1280,8.7709,,native
161,156,condition1,yellow_chair,"
stolica",3122,58,chair,[],25.0,Yes,hrvatski,,HR,ijekavica,štokavski,4,2,da,hrvatski,Female,preAndPostAge8,"engleski, njemacki",ne,Chrome,Windows,720,1280,8.7709,,native
162,156,condition1,white_shoe,"
cipela",3154,59,shoe,[],25.0,Yes,hrvatski,,HR,ijekavica,štokavski,4,2,da,hrvatski,Female,preAndPostAge8,"engleski, njemacki",ne,Chrome,Windows,720,1280,8.7709,,native
163,156,condition1,white_candle,"
svijeca",3679,60,candle,[],25.0,Yes,hrvatski,,HR,ijekavica,štokavski,4,2,da,hrvatski,Female,preAndPostAge8,"engleski, njemacki",ne,Chrome,Windows,720,1280,8.7709,,native
164,156,condition1,yellow_cap,"
silterica",3553,61,cap,[],25.0,Yes,hrvatski,,HR,ijekavica,štokavski,4,2,da,hrvatski,Female,preAndPostAge8,"engleski, njemacki",ne,Chrome,Windows,720,1280,8.7709,,native
165,156,condition1,white_bucket,"
kanta",2200,62,bucket,[],25.0,Yes,hrvatski,,HR,ijekavica,štokavski,4,2,da,hrvatski,Female,preAndPostAge8,"engleski, njemacki",ne,Chrome,Windows,720,1280,8.7709,,native
166,156,condition1,blue_ruler,"
ravnalo",3662,63,ruler,[],25.0,Yes,hrvatski,,HR,ijekavica,štokavski,4,2,da,hrvatski,Female,preAndPostAge8,"engleski, njemacki",ne,Chrome,Windows,720,1280,8.7709,,native
167,156,condition1,purple_dresser,"
ormar",3006,64,dresser,[],25.0,Yes,hrvatski,,HR,ijekavica,štokavski,4,2,da,hrvatski,Female,preAndPostAge8,"engleski, njemacki",ne,Chrome,Windows,720,1280,8.7709,,native
168,156,condition1,orange_rope,"
uze",2833,65,rope,[],25.0,Yes,hrvatski,,HR,ijekavica,štokavski,4,2,da,hrvatski,Female,preAndPostAge8,"engleski, njemacki",ne,Chrome,Windows,720,1280,8.7709,,native
169,156,condition1,green_fork,"
vilica",2966,66,fork,[],25.0,Yes,hrvatski,,HR,ijekavica,štokavski,4,2,da,hrvatski,Female,preAndPostAge8,"engleski, njemacki",ne,Chrome,Windows,720,1280,8.7709,,native
170,156,condition1,red_pencil,"
olovka",2819,67,pencil,[],25.0,Yes,hrvatski,,HR,ijekavica,štokavski,4,2,da,hrvatski,Female,preAndPostAge8,"engleski, njemacki",ne,Chrome,Windows,720,1280,8.7709,,native
171,156,condition1,red_comb,"
cesalj",10378,68,comb,[],25.0,Yes,hrvatski,,HR,ijekavica,štokavski,4,2,da,hrvatski,Female,preAndPostAge8,"engleski, njemacki",ne,Chrome,Windows,720,1280,8.7709,,native
172,156,condition1,purple_slipper,"
papuca",4332,69,slipper,[],25.0,Yes,hrvatski,,HR,ijekavica,štokavski,4,2,da,hrvatski,Female,preAndPostAge8,"engleski, njemacki",ne,Chrome,Windows,720,1280,8.7709,,native
173,156,condition1,purple_calendar,"
kalendar",2914,70,calendar,[],25.0,Yes,hrvatski,,HR,ijekavica,štokavski,4,2,da,hrvatski,Female,preAndPostAge8,"engleski, njemacki",ne,Chrome,Windows,720,1280,8.7709,,native
174,156,condition1,green_hammer,"
cekic",5754,71,hammer,[],25.0,Yes,hrvatski,,HR,ijekavica,štokavski,4,2,da,hrvatski,Female,preAndPostAge8,"engleski, njemacki",ne,Chrome,Windows,720,1280,8.7709,,native
175,156,condition1,yellow_stapler,"
spajalica",4303,72,stapler,[],25.0,Yes,hrvatski,,HR,ijekavica,štokavski,4,2,da,hrvatski,Female,preAndPostAge8,"engleski, njemacki",ne,Chrome,Windows,720,1280,8.7709,,native
176,156,condition1,purple_binoculars,"
dalekozor",3317,73,binoculars,[],25.0,Yes,hrvatski,,HR,ijekavica,štokavski,4,2,da,hrvatski,Female,preAndPostAge8,"engleski, njemacki",ne,Chrome,Windows,720,1280,8.7709,,native
177,156,condition1,white_rug,"
tepig",2001,74,rug,[],25.0,Yes,hrvatski,,HR,ijekavica,štokavski,4,2,da,hrvatski,Female,preAndPostAge8,"engleski, njemacki",ne,Chrome,Windows,720,1280,8.7709,,native
178,156,condition1,red_calculator,"
kalkulato",4180,75,calculator,[],25.0,Yes,hrvatski,,HR,ijekavica,štokavski,4,2,da,hrvatski,Female,preAndPostAge8,"engleski, njemacki",ne,Chrome,Windows,720,1280,8.7709,,native
179,156,condition1,red_bed,"
krevet",2835,76,bed,[],25.0,Yes,hrvatski,,HR,ijekavica,štokavski,4,2,da,hrvatski,Female,preAndPostAge8,"engleski, njemacki",ne,Chrome,Windows,720,1280,8.7709,,native
180,156,condition1,white_binder,"
folder",4214,77,binder,[],25.0,Yes,hrvatski,,HR,ijekavica,štokavski,4,2,da,hrvatski,Female,preAndPostAge8,"engleski, njemacki",ne,Chrome,Windows,720,1280,8.7709,,native
181,156,condition1,blue_mouse,"
mis",1830,78,mouse,[],25.0,Yes,hrvatski,,HR,ijekavica,štokavski,4,2,da,hrvatski,Female,preAndPostAge8,"engleski, njemacki",ne,Chrome,Windows,720,1280,8.7709,,native
182,156,condition1,yellow_billiardball,"
biljarska lopta",13544,79,billiardball,[],25.0,Yes,hrvatski,,HR,ijekavica,štokavski,4,2,da,hrvatski,Female,preAndPostAge8,"engleski, njemacki",ne,Chrome,Windows,720,1280,8.7709,,native
183,156,condition1,orange_knife,"
noz",1772,80,knife,[],25.0,Yes,hrvatski,,HR,ijekavica,štokavski,4,2,da,hrvatski,Female,preAndPostAge8,"engleski, njemacki",ne,Chrome,Windows,720,1280,8.7709,,native
184,156,condition1,yellow_door,"
vrata",2907,81,door,[],25.0,Yes,hrvatski,,HR,ijekavica,štokavski,4,2,da,hrvatski,Female,preAndPostAge8,"engleski, njemacki",ne,Chrome,Windows,720,1280,8.7709,,native
185,156,condition1,white_bike,"
bicikla",3244,82,bike,[],25.0,Yes,hrvatski,,HR,ijekavica,štokavski,4,2,da,hrvatski,Female,preAndPostAge8,"engleski, njemacki",ne,Chrome,Windows,720,1280,8.7709,,native
186,156,condition1,black_camera,"
fotoaparat",6455,83,camera,[],25.0,Yes,hrvatski,,HR,ijekavica,štokavski,4,2,da,hrvatski,Female,preAndPostAge8,"engleski, njemacki",ne,Chrome,Windows,720,1280,8.7709,,native
187,156,condition1,white_mug,"
salica",1896,84,mug,[],25.0,Yes,hrvatski,,HR,ijekavica,štokavski,4,2,da,hrvatski,Female,preAndPostAge8,"engleski, njemacki",ne,Chrome,Windows,720,1280,8.7709,,native
188,156,condition1,red_lamp,"
lampa",2653,85,lamp,[],25.0,Yes,hrvatski,,HR,ijekavica,štokavski,4,2,da,hrvatski,Female,preAndPostAge8,"engleski, njemacki",ne,Chrome,Windows,720,1280,8.7709,,native
189,156,condition1,purple_helicopter,"
helikopter",3018,86,helicopter,[],25.0,Yes,hrvatski,,HR,ijekavica,štokavski,4,2,da,hrvatski,Female,preAndPostAge8,"engleski, njemacki",ne,Chrome,Windows,720,1280,8.7709,,native
190,156,condition1,blue_shirt,"
majica",2750,87,shirt,[],25.0,Yes,hrvatski,,HR,ijekavica,štokavski,4,2,da,hrvatski,Female,preAndPostAge8,"engleski, njemacki",ne,Chrome,Windows,720,1280,8.7709,,native
191,156,condition1,white_ornament,"
ukras",6704,88,ornament,[],25.0,Yes,hrvatski,,HR,ijekavica,štokavski,4,2,da,hrvatski,Female,preAndPostAge8,"engleski, njemacki",ne,Chrome,Windows,720,1280,8.7709,,native
192,156,condition1,white_frame,"
okvir",8137,89,frame,[],25.0,Yes,hrvatski,,HR,ijekavica,štokavski,4,2,da,hrvatski,Female,preAndPostAge8,"engleski, njemacki",ne,Chrome,Windows,720,1280,8.7709,,native
193,156,condition1,yellow_ring,"
prsten",3129,90,ring,[],25.0,Yes,hrvatski,,HR,ijekavica,štokavski,4,2,da,hrvatski,Female,preAndPostAge8,"engleski, njemacki",ne,Chrome,Windows,720,1280,8.7709,,native
194,156,condition1,purple_basket,"
kosara",5394,91,basket,[],25.0,Yes,hrvatski,,HR,ijekavica,štokavski,4,2,da,hrvatski,Female,preAndPostAge8,"engleski, njemacki",ne,Chrome,Windows,720,1280,8.7709,,native
195,156,condition1,white_iron,"
pegla",2805,92,iron,[],25.0,Yes,hrvatski,,HR,ijekavica,štokavski,4,2,da,hrvatski,Female,preAndPostAge8,"engleski, njemacki",ne,Chrome,Windows,720,1280,8.7709,,native
196,156,condition1,black_umbrella,"
kisobran",2677,93,umbrella,[],25.0,Yes,hrvatski,,HR,ijekavica,štokavski,4,2,da,hrvatski,Female,preAndPostAge8,"engleski, njemacki",ne,Chrome,Windows,720,1280,8.7709,,native
197,156,condition1,yellow_guitar,"
gitara",7527,94,guitar,[],25.0,Yes,hrvatski,,HR,ijekavica,štokavski,4,2,da,hrvatski,Female,preAndPostAge8,"engleski, njemacki",ne,Chrome,Windows,720,1280,8.7709,,native
198,156,condition1,black_necklace,"
ogrlica",3322,95,necklace,[],25.0,Yes,hrvatski,,HR,ijekavica,štokavski,4,2,da,hrvatski,Female,preAndPostAge8,"engleski, njemacki",ne,Chrome,Windows,720,1280,8.7709,,native
199,156,condition1,black_bowl,"
zdjela",5551,96,bowl,[],25.0,Yes,hrvatski,,HR,ijekavica,štokavski,4,2,da,hrvatski,Female,preAndPostAge8,"engleski, njemacki",ne,Chrome,Windows,720,1280,8.7709,,native
200,156,condition1,black_shield,"
stit",2398,97,shield,[],25.0,Yes,hrvatski,,HR,ijekavica,štokavski,4,2,da,hrvatski,Female,preAndPostAge8,"engleski, njemacki",ne,Chrome,Windows,720,1280,8.7709,,native
201,156,condition1,purple_robot,"
igracka",3127,98,robot,[],25.0,Yes,hrvatski,,HR,ijekavica,štokavski,4,2,da,hrvatski,Female,preAndPostAge8,"engleski, njemacki",ne,Chrome,Windows,720,1280,8.7709,,native
202,156,condition1,blue_wallet,"
novcanik",3023,99,wallet,[],25.0,Yes,hrvatski,,HR,ijekavica,štokavski,4,2,da,hrvatski,Female,preAndPostAge8,"engleski, njemacki",ne,Chrome,Windows,720,1280,8.7709,,native
203,156,condition1,white_napkin,"
ubrus",8942,100,napkin,[],25.0,Yes,hrvatski,,HR,ijekavica,štokavski,4,2,da,hrvatski,Female,preAndPostAge8,"engleski, njemacki",ne,Chrome,Windows,720,1280,8.7709,,native
204,156,condition1,blue_cushion,"
jastuk",2931,101,cushion,[],25.0,Yes,hrvatski,,HR,ijekavica,štokavski,4,2,da,hrvatski,Female,preAndPostAge8,"engleski, njemacki",ne,Chrome,Windows,720,1280,8.7709,,native
205,156,condition1,purple_glove,"
rukavic",10546,102,glove,[],25.0,Yes,hrvatski,,HR,ijekavica,štokavski,4,2,da,hrvatski,Female,preAndPostAge8,"engleski, njemacki",ne,Chrome,Windows,720,1280,8.7709,,native
206,156,condition1,white_armchair,"
jednosjed",8343,103,armchair,[],25.0,Yes,hrvatski,,HR,ijekavica,štokavski,4,2,da,hrvatski,Female,preAndPostAge8,"engleski, njemacki",ne,Chrome,Windows,720,1280,8.7709,,native
207,156,condition1,orange_lock,"
lokot",2487,104,lock,[],25.0,Yes,hrvatski,,HR,ijekavica,štokavski,4,2,da,hrvatski,Female,preAndPostAge8,"engleski, njemacki",ne,Chrome,Windows,720,1280,8.7709,,native
208,156,condition1,yellow_present,"
poklon",2505,105,present,[],25.0,Yes,hrvatski,,HR,ijekavica,štokavski,4,2,da,hrvatski,Female,preAndPostAge8,"engleski, njemacki",ne,Chrome,Windows,720,1280,8.7709,,native
209,156,condition1,purple_airplane,"
avion",2293,106,airplane,[],25.0,Yes,hrvatski,,HR,ijekavica,štokavski,4,2,da,hrvatski,Female,preAndPostAge8,"engleski, njemacki",ne,Chrome,Windows,720,1280,8.7709,,native
210,221,condition1,white_ruler,ravnalo,73673,2,ruler,[],20.0,Yes,slovenski,,SI,ekavica,kajkavski,2,2,Da.,slovenski,Female,preAndPostAge8,"bosanski, engleski",Ne.,Chrome,Windows,720,1280,31.02458333333333,,simk
211,221,condition1,blue_book,"
knjiga",18476,3,book,[],20.0,Yes,slovenski,,SI,ekavica,kajkavski,2,2,Da.,slovenski,Female,preAndPostAge8,"bosanski, engleski",Ne.,Chrome,Windows,720,1280,31.02458333333333,,simk
212,221,condition1,red_chair,"
stolica",4440,4,chair,[],20.0,Yes,slovenski,,SI,ekavica,kajkavski,2,2,Da.,slovenski,Female,preAndPostAge8,"bosanski, engleski",Ne.,Chrome,Windows,720,1280,31.02458333333333,,simk
213,221,condition1,yellow_key,"
ključ",2999,5,key,[],20.0,Yes,slovenski,,SI,ekavica,kajkavski,2,2,Da.,slovenski,Female,preAndPostAge8,"bosanski, engleski",Ne.,Chrome,Windows,720,1280,31.02458333333333,,simk
214,221,condition1,blue_fence,"
ograda",3420,6,fence,[],20.0,Yes,slovenski,,SI,ekavica,kajkavski,2,2,Da.,slovenski,Female,preAndPostAge8,"bosanski, engleski",Ne.,Chrome,Windows,720,1280,31.02458333333333,,simk
215,221,condition1,orange_shield,"
štit",10877,7,shield,[],20.0,Yes,slovenski,,SI,ekavica,kajkavski,2,2,Da.,slovenski,Female,preAndPostAge8,"bosanski, engleski",Ne.,Chrome,Windows,720,1280,31.02458333333333,,simk
216,221,condition1,black_umbrella,"
kišobran",4545,8,umbrella,[],20.0,Yes,slovenski,,SI,ekavica,kajkavski,2,2,Da.,slovenski,Female,preAndPostAge8,"bosanski, engleski",Ne.,Chrome,Windows,720,1280,31.02458333333333,,simk
217,221,condition1,yellow_binder,"
mapa",6147,9,binder,[],20.0,Yes,slovenski,,SI,ekavica,kajkavski,2,2,Da.,slovenski,Female,preAndPostAge8,"bosanski, engleski",Ne.,Chrome,Windows,720,1280,31.02458333333333,,simk
218,221,condition1,orange_bonbon,"
bombon",16750,10,bonbon,[],20.0,Yes,slovenski,,SI,ekavica,kajkavski,2,2,Da.,slovenski,Female,preAndPostAge8,"bosanski, engleski",Ne.,Chrome,Windows,720,1280,31.02458333333333,,simk
219,221,condition1,white_phone,"
telefon",4726,11,phone,[],20.0,Yes,slovenski,,SI,ekavica,kajkavski,2,2,Da.,slovenski,Female,preAndPostAge8,"bosanski, engleski",Ne.,Chrome,Windows,720,1280,31.02458333333333,,simk
220,221,condition1,purple_lipstick,"
ruž",17804,12,lipstick,[],20.0,Yes,slovenski,,SI,ekavica,kajkavski,2,2,Da.,slovenski,Female,preAndPostAge8,"bosanski, engleski",Ne.,Chrome,Windows,720,1280,31.02458333333333,,simk
221,221,condition1,orange_knife,"
nož",3601,13,knife,[],20.0,Yes,slovenski,,SI,ekavica,kajkavski,2,2,Da.,slovenski,Female,preAndPostAge8,"bosanski, engleski",Ne.,Chrome,Windows,720,1280,31.02458333333333,,simk
222,221,condition1,purple_bandaid,"
flajšter",27908,14,bandaid,[],20.0,Yes,slovenski,,SI,ekavica,kajkavski,2,2,Da.,slovenski,Female,preAndPostAge8,"bosanski, engleski",Ne.,Chrome,Windows,720,1280,31.02458333333333,,simk
223,221,condition1,red_bed,"
krevet",7171,15,bed,[],20.0,Yes,slovenski,,SI,ekavica,kajkavski,2,2,Da.,slovenski,Female,preAndPostAge8,"bosanski, engleski",Ne.,Chrome,Windows,720,1280,31.02458333333333,,simk
224,221,condition1,yellow_wallet,"
novčanik",3910,16,wallet,[],20.0,Yes,slovenski,,SI,ekavica,kajkavski,2,2,Da.,slovenski,Female,preAndPostAge8,"bosanski, engleski",Ne.,Chrome,Windows,720,1280,31.02458333333333,,simk
225,221,condition1,white_frame,"
okvir",10247,17,frame,[],20.0,Yes,slovenski,,SI,ekavica,kajkavski,2,2,Da.,slovenski,Female,preAndPostAge8,"bosanski, engleski",Ne.,Chrome,Windows,720,1280,31.02458333333333,,simk
226,221,condition1,blue_rug,"
tepih",15296,18,rug,[],20.0,Yes,slovenski,,SI,ekavica,kajkavski,2,2,Da.,slovenski,Female,preAndPostAge8,"bosanski, engleski",Ne.,Chrome,Windows,720,1280,31.02458333333333,,simk
227,221,condition1,black_duck,"
patka",12649,19,duck,[],20.0,Yes,slovenski,,SI,ekavica,kajkavski,2,2,Da.,slovenski,Female,preAndPostAge8,"bosanski, engleski",Ne.,Chrome,Windows,720,1280,31.02458333333333,,simk
228,221,condition1,black_tie,"
kravata",9567,20,tie,[],20.0,Yes,slovenski,,SI,ekavica,kajkavski,2,2,Da.,slovenski,Female,preAndPostAge8,"bosanski, engleski",Ne.,Chrome,Windows,720,1280,31.02458333333333,,simk
229,221,condition1,orange_slipper,"
papuče",15306,21,slipper,[],20.0,Yes,slovenski,,SI,ekavica,kajkavski,2,2,Da.,slovenski,Female,preAndPostAge8,"bosanski, engleski",Ne.,Chrome,Windows,720,1280,31.02458333333333,,simk
230,221,condition1,blue_comb,"
češalj",61949,22,comb,[],20.0,Yes,slovenski,,SI,ekavica,kajkavski,2,2,Da.,slovenski,Female,preAndPostAge8,"bosanski, engleski",Ne.,Chrome,Windows,720,1280,31.02458333333333,,simk
231,221,condition1,red_cap,"
kapa",3537,23,cap,[],20.0,Yes,slovenski,,SI,ekavica,kajkavski,2,2,Da.,slovenski,Female,preAndPostAge8,"bosanski, engleski",Ne.,Chrome,Windows,720,1280,31.02458333333333,,simk
232,221,condition1,blue_coathanger,"
vješalica",38333,24,coathanger,[],20.0,Yes,slovenski,,SI,ekavica,kajkavski,2,2,Da.,slovenski,Female,preAndPostAge8,"bosanski, engleski",Ne.,Chrome,Windows,720,1280,31.02458333333333,,simk
233,221,condition1,orange_cake,"
torta",2445,25,cake,[],20.0,Yes,slovenski,,SI,ekavica,kajkavski,2,2,Da.,slovenski,Female,preAndPostAge8,"bosanski, engleski",Ne.,Chrome,Windows,720,1280,31.02458333333333,,simk
234,221,condition1,green_lock,"
katanac",43612,26,lock,[],20.0,Yes,slovenski,,SI,ekavica,kajkavski,2,2,Da.,slovenski,Female,preAndPostAge8,"bosanski, engleski",Ne.,Chrome,Windows,720,1280,31.02458333333333,,simk
235,221,condition1,blue_guitar,"
gitara",17850,27,guitar,[],20.0,Yes,slovenski,,SI,ekavica,kajkavski,2,2,Da.,slovenski,Female,preAndPostAge8,"bosanski, engleski",Ne.,Chrome,Windows,720,1280,31.02458333333333,,simk
236,221,condition1,green_purse,"
tašna",14263,28,purse,[],20.0,Yes,slovenski,,SI,ekavica,kajkavski,2,2,Da.,slovenski,Female,preAndPostAge8,"bosanski, engleski",Ne.,Chrome,Windows,720,1280,31.02458333333333,,simk
237,221,condition1,green_glove,"
rukavica",4720,29,glove,[],20.0,Yes,slovenski,,SI,ekavica,kajkavski,2,2,Da.,slovenski,Female,preAndPostAge8,"bosanski, engleski",Ne.,Chrome,Windows,720,1280,31.02458333333333,,simk
238,221,condition1,yellow_mug,"
šolja",15134,30,mug,[],20.0,Yes,slovenski,,SI,ekavica,kajkavski,2,2,Da.,slovenski,Female,preAndPostAge8,"bosanski, engleski",Ne.,Chrome,Windows,720,1280,31.02458333333333,,simk
239,221,condition1,green_box,"
kutija",19879,31,box,[],20.0,Yes,slovenski,,SI,ekavica,kajkavski,2,2,Da.,slovenski,Female,preAndPostAge8,"bosanski, engleski",Ne.,Chrome,Windows,720,1280,31.02458333333333,,simk
240,221,condition1,green_camera,"
kamera",17773,32,camera,[],20.0,Yes,slovenski,,SI,ekavica,kajkavski,2,2,Da.,slovenski,Female,preAndPostAge8,"bosanski, engleski",Ne.,Chrome,Windows,720,1280,31.02458333333333,,simk
241,221,condition1,purple_airplane,"
avion",11843,33,airplane,[],20.0,Yes,slovenski,,SI,ekavica,kajkavski,2,2,Da.,slovenski,Female,preAndPostAge8,"bosanski, engleski",Ne.,Chrome,Windows,720,1280,31.02458333333333,,simk
242,221,condition1,black_vase,"
vaza",8051,34,vase,[],20.0,Yes,slovenski,,SI,ekavica,kajkavski,2,2,Da.,slovenski,Female,preAndPostAge8,"bosanski, engleski",Ne.,Chrome,Windows,720,1280,31.02458333333333,,simk
243,221,condition1,purple_ladle,"
kutlača",20680,35,ladle,[],20.0,Yes,slovenski,,SI,ekavica,kajkavski,2,2,Da.,slovenski,Female,preAndPostAge8,"bosanski, engleski",Ne.,Chrome,Windows,720,1280,31.02458333333333,,simk
244,221,condition1,red_yarn,"
vuna",9776,36,yarn,[],20.0,Yes,slovenski,,SI,ekavica,kajkavski,2,2,Da.,slovenski,Female,preAndPostAge8,"bosanski, engleski",Ne.,Chrome,Windows,720,1280,31.02458333333333,,simk
245,221,condition1,blue_crown,"
kruna",27524,37,crown,[],20.0,Yes,slovenski,,SI,ekavica,kajkavski,2,2,Da.,slovenski,Female,preAndPostAge8,"bosanski, engleski",Ne.,Chrome,Windows,720,1280,31.02458333333333,,simk
246,221,condition1,yellow_candle,"
sviječa",9928,38,candle,[],20.0,Yes,slovenski,,SI,ekavica,kajkavski,2,2,Da.,slovenski,Female,preAndPostAge8,"bosanski, engleski",Ne.,Chrome,Windows,720,1280,31.02458333333333,,simk
247,221,condition1,black_rope,"
konopac",19307,39,rope,[],20.0,Yes,slovenski,,SI,ekavica,kajkavski,2,2,Da.,slovenski,Female,preAndPostAge8,"bosanski, engleski",Ne.,Chrome,Windows,720,1280,31.02458333333333,,simk
248,221,condition1,black_drum,"
bubanj",59489,40,drum,[],20.0,Yes,slovenski,,SI,ekavica,kajkavski,2,2,Da.,slovenski,Female,preAndPostAge8,"bosanski, engleski",Ne.,Chrome,Windows,720,1280,31.02458333333333,,simk
249,221,condition1,yellow_iron,"
pegla",3261,41,iron,[],20.0,Yes,slovenski,,SI,ekavica,kajkavski,2,2,Da.,slovenski,Female,preAndPostAge8,"bosanski, engleski",Ne.,Chrome,Windows,720,1280,31.02458333333333,,simk
250,221,condition1,green_microscope,"
mikroskop",10457,42,microscope,[],20.0,Yes,slovenski,,SI,ekavica,kajkavski,2,2,Da.,slovenski,Female,preAndPostAge8,"bosanski, engleski",Ne.,Chrome,Windows,720,1280,31.02458333333333,,simk
251,221,condition1,white_bike,"
biciklo",3494,43,bike,[],20.0,Yes,slovenski,,SI,ekavica,kajkavski,2,2,Da.,slovenski,Female,preAndPostAge8,"bosanski, engleski",Ne.,Chrome,Windows,720,1280,31.02458333333333,,simk
252,221,condition1,yellow_dustpan,lopatica za smeče,175718,44,dustpan,[],20.0,Yes,slovenski,,SI,ekavica,kajkavski,2,2,Da.,slovenski,Female,preAndPostAge8,"bosanski, engleski",Ne.,Chrome,Windows,720,1280,31.02458333333333,,simk
253,221,condition1,black_boot,"
čizme",3931,45,boot,[],20.0,Yes,slovenski,,SI,ekavica,kajkavski,2,2,Da.,slovenski,Female,preAndPostAge8,"bosanski, engleski",Ne.,Chrome,Windows,720,1280,31.02458333333333,,simk
254,221,condition1,green_tent,"
šator",13103,46,tent,[],20.0,Yes,slovenski,,SI,ekavica,kajkavski,2,2,Da.,slovenski,Female,preAndPostAge8,"bosanski, engleski",Ne.,Chrome,Windows,720,1280,31.02458333333333,,simk
255,221,condition1,white_calculator,"
kalkulator",2836,47,calculator,[],20.0,Yes,slovenski,,SI,ekavica,kajkavski,2,2,Da.,slovenski,Female,preAndPostAge8,"bosanski, engleski",Ne.,Chrome,Windows,720,1280,31.02458333333333,,simk
256,221,condition1,purple_sponge,"
spužva",74334,48,sponge,[],20.0,Yes,slovenski,,SI,ekavica,kajkavski,2,2,Da.,slovenski,Female,preAndPostAge8,"bosanski, engleski",Ne.,Chrome,Windows,720,1280,31.02458333333333,,simk
257,221,condition1,purple_screwdriver,"
odvijač",35288,49,screwdriver,[],20.0,Yes,slovenski,,SI,ekavica,kajkavski,2,2,Da.,slovenski,Female,preAndPostAge8,"bosanski, engleski",Ne.,Chrome,Windows,720,1280,31.02458333333333,,simk
258,221,condition1,white_fryingpan,"
tava",2931,50,fryingpan,[],20.0,Yes,slovenski,,SI,ekavica,kajkavski,2,2,Da.,slovenski,Female,preAndPostAge8,"bosanski, engleski",Ne.,Chrome,Windows,720,1280,31.02458333333333,,simk
259,221,condition1,orange_basket,"
košara",24453,51,basket,[],20.0,Yes,slovenski,,SI,ekavica,kajkavski,2,2,Da.,slovenski,Female,preAndPostAge8,"bosanski, engleski",Ne.,Chrome,Windows,720,1280,31.02458333333333,,simk
260,221,condition1,purple_die,"
kocka",7377,52,die,[],20.0,Yes,slovenski,,SI,ekavica,kajkavski,2,2,Da.,slovenski,Female,preAndPostAge8,"bosanski, engleski",Ne.,Chrome,Windows,720,1280,31.02458333333333,,simk
261,221,condition1,black_truck,"
kamion",14264,53,truck,[],20.0,Yes,slovenski,,SI,ekavica,kajkavski,2,2,Da.,slovenski,Female,preAndPostAge8,"bosanski, engleski",Ne.,Chrome,Windows,720,1280,31.02458333333333,,simk
262,221,condition1,yellow_mask,"
maska",5161,54,mask,[],20.0,Yes,slovenski,,SI,ekavica,kajkavski,2,2,Da.,slovenski,Female,preAndPostAge8,"bosanski, engleski",Ne.,Chrome,Windows,720,1280,31.02458333333333,,simk
263,221,condition1,purple_whistle,"
zviždaljka",12565,55,whistle,[],20.0,Yes,slovenski,,SI,ekavica,kajkavski,2,2,Da.,slovenski,Female,preAndPostAge8,"bosanski, engleski",Ne.,Chrome,Windows,720,1280,31.02458333333333,,simk
264,221,condition1,purple_bench,"
klupa",15850,56,bench,[],20.0,Yes,slovenski,,SI,ekavica,kajkavski,2,2,Da.,slovenski,Female,preAndPostAge8,"bosanski, engleski",Ne.,Chrome,Windows,720,1280,31.02458333333333,,simk
265,221,condition1,white_cushion,"
jastuk",29824,57,cushion,[],20.0,Yes,slovenski,,SI,ekavica,kajkavski,2,2,Da.,slovenski,Female,preAndPostAge8,"bosanski, engleski",Ne.,Chrome,Windows,720,1280,31.02458333333333,,simk
266,221,condition1,purple_remote,"
daljinski",22768,58,remote,[],20.0,Yes,slovenski,,SI,ekavica,kajkavski,2,2,Da.,slovenski,Female,preAndPostAge8,"bosanski, engleski",Ne.,Chrome,Windows,720,1280,31.02458333333333,,simk
267,221,condition1,white_dress,"
suknja",6134,59,dress,[],20.0,Yes,slovenski,,SI,ekavica,kajkavski,2,2,Da.,slovenski,Female,preAndPostAge8,"bosanski, engleski",Ne.,Chrome,Windows,720,1280,31.02458333333333,,simk
268,221,condition1,orange_fork,"
viljuška",4257,60,fork,[],20.0,Yes,slovenski,,SI,ekavica,kajkavski,2,2,Da.,slovenski,Female,preAndPostAge8,"bosanski, engleski",Ne.,Chrome,Windows,720,1280,31.02458333333333,,simk
269,221,condition1,orange_ribbon,mašna,58220,61,ribbon,[],20.0,Yes,slovenski,,SI,ekavica,kajkavski,2,2,Da.,slovenski,Female,preAndPostAge8,"bosanski, engleski",Ne.,Chrome,Windows,720,1280,31.02458333333333,,simk
270,221,condition1,white_mouse,"
miš",14099,62,mouse,[],20.0,Yes,slovenski,,SI,ekavica,kajkavski,2,2,Da.,slovenski,Female,preAndPostAge8,"bosanski, engleski",Ne.,Chrome,Windows,720,1280,31.02458333333333,,simk
271,221,condition1,black_helicopter,"
helikopter",4056,63,helicopter,[],20.0,Yes,slovenski,,SI,ekavica,kajkavski,2,2,Da.,slovenski,Female,preAndPostAge8,"bosanski, engleski",Ne.,Chrome,Windows,720,1280,31.02458333333333,,simk
272,221,condition1,red_ring,"
prsten",5946,64,ring,[],20.0,Yes,slovenski,,SI,ekavica,kajkavski,2,2,Da.,slovenski,Female,preAndPostAge8,"bosanski, engleski",Ne.,Chrome,Windows,720,1280,31.02458333333333,,simk
273,221,condition1,purple_robot,"
robot",3054,65,robot,[],20.0,Yes,slovenski,,SI,ekavica,kajkavski,2,2,Da.,slovenski,Female,preAndPostAge8,"bosanski, engleski",Ne.,Chrome,Windows,720,1280,31.02458333333333,,simk
274,221,condition1,white_stapler,"
spajalica",12292,66,stapler,[],20.0,Yes,slovenski,,SI,ekavica,kajkavski,2,2,Da.,slovenski,Female,preAndPostAge8,"bosanski, engleski",Ne.,Chrome,Windows,720,1280,31.02458333333333,,simk
275,221,condition1,black_necklace,"
lanac",26100,67,necklace,[],20.0,Yes,slovenski,,SI,ekavica,kajkavski,2,2,Da.,slovenski,Female,preAndPostAge8,"bosanski, engleski",Ne.,Chrome,Windows,720,1280,31.02458333333333,,simk
276,221,condition1,orange_radio,"
radio",2303,68,radio,[],20.0,Yes,slovenski,,SI,ekavica,kajkavski,2,2,Da.,slovenski,Female,preAndPostAge8,"bosanski, engleski",Ne.,Chrome,Windows,720,1280,31.02458333333333,,simk
277,221,condition1,purple_sock,"
čarapa",3366,69,sock,[],20.0,Yes,slovenski,,SI,ekavica,kajkavski,2,2,Da.,slovenski,Female,preAndPostAge8,"bosanski, engleski",Ne.,Chrome,Windows,720,1280,31.02458333333333,,simk
278,221,condition1,white_bucket,"
kanta",20954,70,bucket,[],20.0,Yes,slovenski,,SI,ekavica,kajkavski,2,2,Da.,slovenski,Female,preAndPostAge8,"bosanski, engleski",Ne.,Chrome,Windows,720,1280,31.02458333333333,,simk
279,221,condition1,red_pencil,"
svinčnik",4500,71,pencil,[],20.0,Yes,slovenski,,SI,ekavica,kajkavski,2,2,Da.,slovenski,Female,preAndPostAge8,"bosanski, engleski",Ne.,Chrome,Windows,720,1280,31.02458333333333,,simk
280,221,condition1,red_door,"
vrata",6117,72,door,[],20.0,Yes,slovenski,,SI,ekavica,kajkavski,2,2,Da.,slovenski,Female,preAndPostAge8,"bosanski, engleski",Ne.,Chrome,Windows,720,1280,31.02458333333333,,simk
281,221,condition1,green_luggage,"
kofer",15698,73,luggage,[],20.0,Yes,slovenski,,SI,ekavica,kajkavski,2,2,Da.,slovenski,Female,preAndPostAge8,"bosanski, engleski",Ne.,Chrome,Windows,720,1280,31.02458333333333,,simk
282,221,condition1,yellow_flower,"
ruža",2103,74,flower,[],20.0,Yes,slovenski,,SI,ekavica,kajkavski,2,2,Da.,slovenski,Female,preAndPostAge8,"bosanski, engleski",Ne.,Chrome,Windows,720,1280,31.02458333333333,,simk
283,221,condition1,black_plate,"
tanjir",3186,75,plate,[],20.0,Yes,slovenski,,SI,ekavica,kajkavski,2,2,Da.,slovenski,Female,preAndPostAge8,"bosanski, engleski",Ne.,Chrome,Windows,720,1280,31.02458333333333,,simk
284,221,condition1,blue_present,"
poklon",46355,76,present,[],20.0,Yes,slovenski,,SI,ekavica,kajkavski,2,2,Da.,slovenski,Female,preAndPostAge8,"bosanski, engleski",Ne.,Chrome,Windows,720,1280,31.02458333333333,,simk
285,221,condition1,yellow_billiardball,"
kugla",5226,77,billiardball,[],20.0,Yes,slovenski,,SI,ekavica,kajkavski,2,2,Da.,slovenski,Female,preAndPostAge8,"bosanski, engleski",Ne.,Chrome,Windows,720,1280,31.02458333333333,,simk
286,221,condition1,green_shell,"
školjka",4280,78,shell,[],20.0,Yes,slovenski,,SI,ekavica,kajkavski,2,2,Da.,slovenski,Female,preAndPostAge8,"bosanski, engleski",Ne.,Chrome,Windows,720,1280,31.02458333333333,,simk
287,221,condition1,purple_binoculars,"
teleskop",20106,79,binoculars,[],20.0,Yes,slovenski,,SI,ekavica,kajkavski,2,2,Da.,slovenski,Female,preAndPostAge8,"bosanski, engleski",Ne.,Chrome,Windows,720,1280,31.02458333333333,,simk
288,221,condition1,yellow_magnifyingglass,"
lupa",3349,80,magnifyingglass,[],20.0,Yes,slovenski,,SI,ekavica,kajkavski,2,2,Da.,slovenski,Female,preAndPostAge8,"bosanski, engleski",Ne.,Chrome,Windows,720,1280,31.02458333333333,,simk
289,221,condition1,orange_fish,"
riba",2120,81,fish,[],20.0,Yes,slovenski,,SI,ekavica,kajkavski,2,2,Da.,slovenski,Female,preAndPostAge8,"bosanski, engleski",Ne.,Chrome,Windows,720,1280,31.02458333333333,,simk
290,221,condition1,white_shirt,"
majica",4583,82,shirt,[],20.0,Yes,slovenski,,SI,ekavica,kajkavski,2,2,Da.,slovenski,Female,preAndPostAge8,"bosanski, engleski",Ne.,Chrome,Windows,720,1280,31.02458333333333,,simk
291,221,condition1,red_napkin,"
salveta",13213,83,napkin,[],20.0,Yes,slovenski,,SI,ekavica,kajkavski,2,2,Da.,slovenski,Female,preAndPostAge8,"bosanski, engleski",Ne.,Chrome,Windows,720,1280,31.02458333333333,,simk
292,221,condition1,black_bowl,"
zdjela",13456,84,bowl,[],20.0,Yes,slovenski,,SI,ekavica,kajkavski,2,2,Da.,slovenski,Female,preAndPostAge8,"bosanski, engleski",Ne.,Chrome,Windows,720,1280,31.02458333333333,,simk
293,221,condition1,blue_table,"
sto",9938,85,table,[],20.0,Yes,slovenski,,SI,ekavica,kajkavski,2,2,Da.,slovenski,Female,preAndPostAge8,"bosanski, engleski",Ne.,Chrome,Windows,720,1280,31.02458333333333,,simk
294,221,condition1,red_scarf,"
šal",8583,86,scarf,[],20.0,Yes,slovenski,,SI,ekavica,kajkavski,2,2,Da.,slovenski,Female,preAndPostAge8,"bosanski, engleski",Ne.,Chrome,Windows,720,1280,31.02458333333333,,simk
295,221,condition1,yellow_armchair,"
fotelja",28047,87,armchair,[],20.0,Yes,slovenski,,SI,ekavica,kajkavski,2,2,Da.,slovenski,Female,preAndPostAge8,"bosanski, engleski",Ne.,Chrome,Windows,720,1280,31.02458333333333,,simk
296,221,condition1,white_balloon,"
balon",2204,88,balloon,[],20.0,Yes,slovenski,,SI,ekavica,kajkavski,2,2,Da.,slovenski,Female,preAndPostAge8,"bosanski, engleski",Ne.,Chrome,Windows,720,1280,31.02458333333333,,simk
297,221,condition1,black_razor,britvica,11657,89,razor,[],20.0,Yes,slovenski,,SI,ekavica,kajkavski,2,2,Da.,slovenski,Female,preAndPostAge8,"bosanski, engleski",Ne.,Chrome,Windows,720,1280,31.02458333333333,,simk
298,221,condition1,red_shoe,"
cipela",4581,90,shoe,[],20.0,Yes,slovenski,,SI,ekavica,kajkavski,2,2,Da.,slovenski,Female,preAndPostAge8,"bosanski, engleski",Ne.,Chrome,Windows,720,1280,31.02458333333333,,simk
299,221,condition1,orange_shovel,"
lopata",3917,91,shovel,[],20.0,Yes,slovenski,,SI,ekavica,kajkavski,2,2,Da.,slovenski,Female,preAndPostAge8,"bosanski, engleski",Ne.,Chrome,Windows,720,1280,31.02458333333333,,simk
300,221,condition1,orange_tv,"
televizija",5984,92,tv,[],20.0,Yes,slovenski,,SI,ekavica,kajkavski,2,2,Da.,slovenski,Female,preAndPostAge8,"bosanski, engleski",Ne.,Chrome,Windows,720,1280,31.02458333333333,,simk
301,221,condition1,blue_belt,"
pojas",17049,93,belt,[],20.0,Yes,slovenski,,SI,ekavica,kajkavski,2,2,Da.,slovenski,Female,preAndPostAge8,"bosanski, engleski",Ne.,Chrome,Windows,720,1280,31.02458333333333,,simk
302,221,condition1,white_switch,"
sklopka",26363,94,switch,[],20.0,Yes,slovenski,,SI,ekavica,kajkavski,2,2,Da.,slovenski,Female,preAndPostAge8,"bosanski, engleski",Ne.,Chrome,Windows,720,1280,31.02458333333333,,simk
303,221,condition1,green_dresser,"
ormar",3339,95,dresser,[],20.0,Yes,slovenski,,SI,ekavica,kajkavski,2,2,Da.,slovenski,Female,preAndPostAge8,"bosanski, engleski",Ne.,Chrome,Windows,720,1280,31.02458333333333,,simk
304,221,condition1,blue_butterfly,"
leptir",2179,96,butterfly,[],20.0,Yes,slovenski,,SI,ekavica,kajkavski,2,2,Da.,slovenski,Female,preAndPostAge8,"bosanski, engleski",Ne.,Chrome,Windows,720,1280,31.02458333333333,,simk
305,221,condition1,green_spoon,"
kašika",4193,97,spoon,[],20.0,Yes,slovenski,,SI,ekavica,kajkavski,2,2,Da.,slovenski,Female,preAndPostAge8,"bosanski, engleski",Ne.,Chrome,Windows,720,1280,31.02458333333333,,simk
306,221,condition1,yellow_notebook,"
svezak",21800,98,notebook,[],20.0,Yes,slovenski,,SI,ekavica,kajkavski,2,2,Da.,slovenski,Female,preAndPostAge8,"bosanski, engleski",Ne.,Chrome,Windows,720,1280,31.02458333333333,,simk
307,221,condition1,purple_hammer,"
čekić",9817,99,hammer,[],20.0,Yes,slovenski,,SI,ekavica,kajkavski,2,2,Da.,slovenski,Female,preAndPostAge8,"bosanski, engleski",Ne.,Chrome,Windows,720,1280,31.02458333333333,,simk
308,221,condition1,white_bracelet,narukvica,13048,100,bracelet,[],20.0,Yes,slovenski,,SI,ekavica,kajkavski,2,2,Da.,slovenski,Female,preAndPostAge8,"bosanski, engleski",Ne.,Chrome,Windows,720,1280,31.02458333333333,,simk
309,221,condition1,white_sword,"
sablja",9157,101,sword,[],20.0,Yes,slovenski,,SI,ekavica,kajkavski,2,2,Da.,slovenski,Female,preAndPostAge8,"bosanski, engleski",Ne.,Chrome,Windows,720,1280,31.02458333333333,,simk
310,221,condition1,yellow_lamp,"
svjetlo",10056,102,lamp,[],20.0,Yes,slovenski,,SI,ekavica,kajkavski,2,2,Da.,slovenski,Female,preAndPostAge8,"bosanski, engleski",Ne.,Chrome,Windows,720,1280,31.02458333333333,,simk
311,221,condition1,white_ornament,"
naušnica",11984,103,ornament,[],20.0,Yes,slovenski,,SI,ekavica,kajkavski,2,2,Da.,slovenski,Female,preAndPostAge8,"bosanski, engleski",Ne.,Chrome,Windows,720,1280,31.02458333333333,,simk
312,221,condition1,green_piano,"
klavir",17605,104,piano,[],20.0,Yes,slovenski,,SI,ekavica,kajkavski,2,2,Da.,slovenski,Female,preAndPostAge8,"bosanski, engleski",Ne.,Chrome,Windows,720,1280,31.02458333333333,,simk
313,221,condition1,orange_calendar,"
kalendar",10038,105,calendar,[],20.0,Yes,slovenski,,SI,ekavica,kajkavski,2,2,Da.,slovenski,Female,preAndPostAge8,"bosanski, engleski",Ne.,Chrome,Windows,720,1280,31.02458333333333,,simk
314,221,condition1,white_clock,"
sat",4518,106,clock,[],20.0,Yes,slovenski,,SI,ekavica,kajkavski,2,2,Da.,slovenski,Female,preAndPostAge8,"bosanski, engleski",Ne.,Chrome,Windows,720,1280,31.02458333333333,,simk
315,163,condition1,red_candle,Svijeca,21682,2,candle,[],35.0,Yes,bosanski,,BIH,ijekavica,štokavski,1,1,Da,bosanski,Female,preAndPostAge8,engleski ,Ne,Chrome,Linux,771,360,16.90138333333333,,native
316,163,condition1,orange_spoon,Kasika,4307,3,spoon,[],35.0,Yes,bosanski,,BIH,ijekavica,štokavski,1,1,Da,bosanski,Female,preAndPostAge8,engleski ,Ne,Chrome,Linux,771,360,16.90138333333333,,native
317,163,condition1,blue_book,Knjiga,4275,4,book,[],35.0,Yes,bosanski,,BIH,ijekavica,štokavski,1,1,Da,bosanski,Female,preAndPostAge8,engleski ,Ne,Chrome,Linux,771,360,16.90138333333333,,native
318,163,condition1,red_cushion,Jastuk,4063,5,cushion,[],35.0,Yes,bosanski,,BIH,ijekavica,štokavski,1,1,Da,bosanski,Female,preAndPostAge8,engleski ,Ne,Chrome,Linux,771,360,16.90138333333333,,native
319,163,condition1,orange_vase,Vaza,6379,6,vase,[],35.0,Yes,bosanski,,BIH,ijekavica,štokavski,1,1,Da,bosanski,Female,preAndPostAge8,engleski ,Ne,Chrome,Linux,771,360,16.90138333333333,,native
320,163,condition1,blue_bracelet,Ogrlica,4656,7,bracelet,[],35.0,Yes,bosanski,,BIH,ijekavica,štokavski,1,1,Da,bosanski,Female,preAndPostAge8,engleski ,Ne,Chrome,Linux,771,360,16.90138333333333,,native
321,163,condition1,orange_slipper,Papuca,5072,8,slipper,[],35.0,Yes,bosanski,,BIH,ijekavica,štokavski,1,1,Da,bosanski,Female,preAndPostAge8,engleski ,Ne,Chrome,Linux,771,360,16.90138333333333,,native
322,163,condition1,orange_drum,Bubanj,10849,9,drum,[],35.0,Yes,bosanski,,BIH,ijekavica,štokavski,1,1,Da,bosanski,Female,preAndPostAge8,engleski ,Ne,Chrome,Linux,771,360,16.90138333333333,,native
323,163,condition1,purple_bandaid,Flaster,8451,10,bandaid,[],35.0,Yes,bosanski,,BIH,ijekavica,štokavski,1,1,Da,bosanski,Female,preAndPostAge8,engleski ,Ne,Chrome,Linux,771,360,16.90138333333333,,native
324,163,condition1,white_napkin,Salveta,5824,11,napkin,[],35.0,Yes,bosanski,,BIH,ijekavica,štokavski,1,1,Da,bosanski,Female,preAndPostAge8,engleski ,Ne,Chrome,Linux,771,360,16.90138333333333,,native
325,163,condition1,purple_cake,Torta,5227,12,cake,[],35.0,Yes,bosanski,,BIH,ijekavica,štokavski,1,1,Da,bosanski,Female,preAndPostAge8,engleski ,Ne,Chrome,Linux,771,360,16.90138333333333,,native
326,163,condition1,green_boot,Cipela,5999,13,boot,[],35.0,Yes,bosanski,,BIH,ijekavica,štokavski,1,1,Da,bosanski,Female,preAndPostAge8,engleski ,Ne,Chrome,Linux,771,360,16.90138333333333,,native
327,163,condition1,blue_balloon,Balon,5059,14,balloon,[],35.0,Yes,bosanski,,BIH,ijekavica,štokavski,1,1,Da,bosanski,Female,preAndPostAge8,engleski ,Ne,Chrome,Linux,771,360,16.90138333333333,,native
328,163,condition1,white_chair,Stolica,4703,15,chair,[],35.0,Yes,bosanski,,BIH,ijekavica,štokavski,1,1,Da,bosanski,Female,preAndPostAge8,engleski ,Ne,Chrome,Linux,771,360,16.90138333333333,,native
329,163,condition1,yellow_clock,Sat ,16989,16,clock,[],35.0,Yes,bosanski,,BIH,ijekavica,štokavski,1,1,Da,bosanski,Female,preAndPostAge8,engleski ,Ne,Chrome,Linux,771,360,16.90138333333333,,native
330,163,condition1,green_tie,Kravata,6240,17,tie,[],35.0,Yes,bosanski,,BIH,ijekavica,štokavski,1,1,Da,bosanski,Female,preAndPostAge8,engleski ,Ne,Chrome,Linux,771,360,16.90138333333333,,native
331,163,condition1,blue_scarf,Sal ,10259,18,scarf,[],35.0,Yes,bosanski,,BIH,ijekavica,štokavski,1,1,Da,bosanski,Female,preAndPostAge8,engleski ,Ne,Chrome,Linux,771,360,16.90138333333333,,native
332,163,condition1,blue_magnifyingglass,Lupa,8423,19,magnifyingglass,[],35.0,Yes,bosanski,,BIH,ijekavica,štokavski,1,1,Da,bosanski,Female,preAndPostAge8,engleski ,Ne,Chrome,Linux,771,360,16.90138333333333,,native
333,163,condition1,yellow_wallet,Novcanik,6954,20,wallet,[],35.0,Yes,bosanski,,BIH,ijekavica,štokavski,1,1,Da,bosanski,Female,preAndPostAge8,engleski ,Ne,Chrome,Linux,771,360,16.90138333333333,,native
334,163,condition1,purple_whistle,Pistaljka,6648,21,whistle,[],35.0,Yes,bosanski,,BIH,ijekavica,štokavski,1,1,Da,bosanski,Female,preAndPostAge8,engleski ,Ne,Chrome,Linux,771,360,16.90138333333333,,native
335,163,condition1,green_truck,Kamion,8203,22,truck,[],35.0,Yes,bosanski,,BIH,ijekavica,štokavski,1,1,Da,bosanski,Female,preAndPostAge8,engleski ,Ne,Chrome,Linux,771,360,16.90138333333333,,native
336,163,condition1,green_robot,Robot,109579,23,robot,[],35.0,Yes,bosanski,,BIH,ijekavica,štokavski,1,1,Da,bosanski,Female,preAndPostAge8,engleski ,Ne,Chrome,Linux,771,360,16.90138333333333,,native
337,163,condition1,green_knife,Noz ,12689,24,knife,[],35.0,Yes,bosanski,,BIH,ijekavica,štokavski,1,1,Da,bosanski,Female,preAndPostAge8,engleski ,Ne,Chrome,Linux,771,360,16.90138333333333,,native
338,163,condition1,white_flower,Cvijet,7224,25,flower,[],35.0,Yes,bosanski,,BIH,ijekavica,štokavski,1,1,Da,bosanski,Female,preAndPostAge8,engleski ,Ne,Chrome,Linux,771,360,16.90138333333333,,native
339,163,condition1,purple_lock,Katanac,6841,26,lock,[],35.0,Yes,bosanski,,BIH,ijekavica,štokavski,1,1,Da,bosanski,Female,preAndPostAge8,engleski ,Ne,Chrome,Linux,771,360,16.90138333333333,,native
340,163,condition1,orange_radio,Radio,8637,27,radio,[],35.0,Yes,bosanski,,BIH,ijekavica,štokavski,1,1,Da,bosanski,Female,preAndPostAge8,engleski ,Ne,Chrome,Linux,771,360,16.90138333333333,,native
341,163,condition1,black_piano,Klavir,5966,28,piano,[],35.0,Yes,bosanski,,BIH,ijekavica,štokavski,1,1,Da,bosanski,Female,preAndPostAge8,engleski ,Ne,Chrome,Linux,771,360,16.90138333333333,,native
342,163,condition1,black_calendar,Kalendar,6516,29,calendar,[],35.0,Yes,bosanski,,BIH,ijekavica,štokavski,1,1,Da,bosanski,Female,preAndPostAge8,engleski ,Ne,Chrome,Linux,771,360,16.90138333333333,,native
343,163,condition1,green_hammer,Cekic,8855,30,hammer,[],35.0,Yes,bosanski,,BIH,ijekavica,štokavski,1,1,Da,bosanski,Female,preAndPostAge8,engleski ,Ne,Chrome,Linux,771,360,16.90138333333333,,native
344,163,condition1,green_shield,Oklop,30009,31,shield,[],35.0,Yes,bosanski,,BIH,ijekavica,štokavski,1,1,Da,bosanski,Female,preAndPostAge8,engleski ,Ne,Chrome,Linux,771,360,16.90138333333333,,native
345,163,condition1,orange_die,Kockica ,7970,32,die,[],35.0,Yes,bosanski,,BIH,ijekavica,štokavski,1,1,Da,bosanski,Female,preAndPostAge8,engleski ,Ne,Chrome,Linux,771,360,16.90138333333333,,native
346,163,condition1,orange_bowl,Zdjela,6068,33,bowl,[],35.0,Yes,bosanski,,BIH,ijekavica,štokavski,1,1,Da,bosanski,Female,preAndPostAge8,engleski ,Ne,Chrome,Linux,771,360,16.90138333333333,,native
347,163,condition1,orange_bonbon,Bombona,6644,34,bonbon,[],35.0,Yes,bosanski,,BIH,ijekavica,štokavski,1,1,Da,bosanski,Female,preAndPostAge8,engleski ,Ne,Chrome,Linux,771,360,16.90138333333333,,native
348,163,condition1,red_coathanger,Vjesalica,6384,35,coathanger,[],35.0,Yes,bosanski,,BIH,ijekavica,štokavski,1,1,Da,bosanski,Female,preAndPostAge8,engleski ,Ne,Chrome,Linux,771,360,16.90138333333333,,native
349,163,condition1,blue_mouse,Mis ,14217,36,mouse,[],35.0,Yes,bosanski,,BIH,ijekavica,štokavski,1,1,Da,bosanski,Female,preAndPostAge8,engleski ,Ne,Chrome,Linux,771,360,16.90138333333333,,native
350,163,condition1,white_sword,Sablja,13166,37,sword,[],35.0,Yes,bosanski,,BIH,ijekavica,štokavski,1,1,Da,bosanski,Female,preAndPostAge8,engleski ,Ne,Chrome,Linux,771,360,16.90138333333333,,native
351,163,condition1,yellow_bike,Biciklo,5269,38,bike,[],35.0,Yes,bosanski,,BIH,ijekavica,štokavski,1,1,Da,bosanski,Female,preAndPostAge8,engleski ,Ne,Chrome,Linux,771,360,16.90138333333333,,native
352,163,condition1,red_bucket,Kanta,4851,39,bucket,[],35.0,Yes,bosanski,,BIH,ijekavica,štokavski,1,1,Da,bosanski,Female,preAndPostAge8,engleski ,Ne,Chrome,Linux,771,360,16.90138333333333,,native
353,163,condition1,yellow_rug,Prostirka,7578,40,rug,[],35.0,Yes,bosanski,,BIH,ijekavica,štokavski,1,1,Da,bosanski,Female,preAndPostAge8,engleski ,Ne,Chrome,Linux,771,360,16.90138333333333,,native
354,163,condition1,green_razor,Bic ,14926,41,razor,[],35.0,Yes,bosanski,,BIH,ijekavica,štokavski,1,1,Da,bosanski,Female,preAndPostAge8,engleski ,Ne,Chrome,Linux,771,360,16.90138333333333,,native
355,163,condition1,black_sock,Carapa,5686,42,sock,[],35.0,Yes,bosanski,,BIH,ijekavica,štokavski,1,1,Da,bosanski,Female,preAndPostAge8,engleski ,Ne,Chrome,Linux,771,360,16.90138333333333,,native
356,163,condition1,purple_screwdriver,Sarafciger,7239,43,screwdriver,[],35.0,Yes,bosanski,,BIH,ijekavica,štokavski,1,1,Da,bosanski,Female,preAndPostAge8,engleski ,Ne,Chrome,Linux,771,360,16.90138333333333,,native
357,163,condition1,purple_fish,Riba,4753,44,fish,[],35.0,Yes,bosanski,,BIH,ijekavica,štokavski,1,1,Da,bosanski,Female,preAndPostAge8,engleski ,Ne,Chrome,Linux,771,360,16.90138333333333,,native
358,163,condition1,purple_fork,Viljuska,6624,45,fork,[],35.0,Yes,bosanski,,BIH,ijekavica,štokavski,1,1,Da,bosanski,Female,preAndPostAge8,engleski ,Ne,Chrome,Linux,771,360,16.90138333333333,,native
359,163,condition1,purple_box,Kutija,6449,46,box,[],35.0,Yes,bosanski,,BIH,ijekavica,štokavski,1,1,Da,bosanski,Female,preAndPostAge8,engleski ,Ne,Chrome,Linux,771,360,16.90138333333333,,native
360,163,condition1,black_microscope,Mikroskop,11269,47,microscope,[],35.0,Yes,bosanski,,BIH,ijekavica,štokavski,1,1,Da,bosanski,Female,preAndPostAge8,engleski ,Ne,Chrome,Linux,771,360,16.90138333333333,,native
361,163,condition1,yellow_iron,Pegla,4152,48,iron,[],35.0,Yes,bosanski,,BIH,ijekavica,štokavski,1,1,Da,bosanski,Female,preAndPostAge8,engleski ,Ne,Chrome,Linux,771,360,16.90138333333333,,native
362,163,condition1,white_notebook,Notes,4828,49,notebook,[],35.0,Yes,bosanski,,BIH,ijekavica,štokavski,1,1,Da,bosanski,Female,preAndPostAge8,engleski ,Ne,Chrome,Linux,771,360,16.90138333333333,,native
363,163,condition1,white_binder,Fascikla,27135,50,binder,[],35.0,Yes,bosanski,,BIH,ijekavica,štokavski,1,1,Da,bosanski,Female,preAndPostAge8,engleski ,Ne,Chrome,Linux,771,360,16.90138333333333,,native
364,163,condition1,yellow_frame,Ram ,9656,51,frame,[],35.0,Yes,bosanski,,BIH,ijekavica,štokavski,1,1,Da,bosanski,Female,preAndPostAge8,engleski ,Ne,Chrome,Linux,771,360,16.90138333333333,,native
365,163,condition1,white_butterfly,Leptir,5915,52,butterfly,[],35.0,Yes,bosanski,,BIH,ijekavica,štokavski,1,1,Da,bosanski,Female,preAndPostAge8,engleski ,Ne,Chrome,Linux,771,360,16.90138333333333,,native
366,163,condition1,white_shoe,Cipela,4182,53,shoe,[],35.0,Yes,bosanski,,BIH,ijekavica,štokavski,1,1,Da,bosanski,Female,preAndPostAge8,engleski ,Ne,Chrome,Linux,771,360,16.90138333333333,,native
367,163,condition1,red_bed,Krevet,5480,54,bed,[],35.0,Yes,bosanski,,BIH,ijekavica,štokavski,1,1,Da,bosanski,Female,preAndPostAge8,engleski ,Ne,Chrome,Linux,771,360,16.90138333333333,,native
368,163,condition1,green_helicopter,Helikopter,4511,55,helicopter,[],35.0,Yes,bosanski,,BIH,ijekavica,štokavski,1,1,Da,bosanski,Female,preAndPostAge8,engleski ,Ne,Chrome,Linux,771,360,16.90138333333333,,native
369,163,condition1,green_duck,Gumena patka,5943,56,duck,[],35.0,Yes,bosanski,,BIH,ijekavica,štokavski,1,1,Da,bosanski,Female,preAndPostAge8,engleski ,Ne,Chrome,Linux,771,360,16.90138333333333,,native
370,163,condition1,purple_glove,Rukavica,4813,57,glove,[],35.0,Yes,bosanski,,BIH,ijekavica,štokavski,1,1,Da,bosanski,Female,preAndPostAge8,engleski ,Ne,Chrome,Linux,771,360,16.90138333333333,,native
371,163,condition1,blue_switch,Prekidac,5305,58,switch,[],35.0,Yes,bosanski,,BIH,ijekavica,štokavski,1,1,Da,bosanski,Female,preAndPostAge8,engleski ,Ne,Chrome,Linux,771,360,16.90138333333333,,native
372,163,condition1,red_belt,Kais,6563,59,belt,[],35.0,Yes,bosanski,,BIH,ijekavica,štokavski,1,1,Da,bosanski,Female,preAndPostAge8,engleski ,Ne,Chrome,Linux,771,360,16.90138333333333,,native
373,163,condition1,purple_binoculars,Dvogled,6588,60,binoculars,[],35.0,Yes,bosanski,,BIH,ijekavica,štokavski,1,1,Da,bosanski,Female,preAndPostAge8,engleski ,Ne,Chrome,Linux,771,360,16.90138333333333,,native
374,163,condition1,red_shirt,Majica,6142,61,shirt,[],35.0,Yes,bosanski,,BIH,ijekavica,štokavski,1,1,Da,bosanski,Female,preAndPostAge8,engleski ,Ne,Chrome,Linux,771,360,16.90138333333333,,native
375,163,condition1,purple_remote,Daljinski,6526,62,remote,[],35.0,Yes,bosanski,,BIH,ijekavica,štokavski,1,1,Da,bosanski,Female,preAndPostAge8,engleski ,Ne,Chrome,Linux,771,360,16.90138333333333,,native
376,163,condition1,white_fryingpan,Tava,4093,63,fryingpan,[],35.0,Yes,bosanski,,BIH,ijekavica,štokavski,1,1,Da,bosanski,Female,preAndPostAge8,engleski ,Ne,Chrome,Linux,771,360,16.90138333333333,,native
377,163,condition1,blue_ornament,Ukrasna zarulja,48672,64,ornament,[],35.0,Yes,bosanski,,BIH,ijekavica,štokavski,1,1,Da,bosanski,Female,preAndPostAge8,engleski ,Ne,Chrome,Linux,771,360,16.90138333333333,,native
378,163,condition1,white_guitar,Gitara,3924,65,guitar,[],35.0,Yes,bosanski,,BIH,ijekavica,štokavski,1,1,Da,bosanski,Female,preAndPostAge8,engleski ,Ne,Chrome,Linux,771,360,16.90138333333333,,native
379,163,condition1,white_pencil,Olovka,4067,66,pencil,[],35.0,Yes,bosanski,,BIH,ijekavica,štokavski,1,1,Da,bosanski,Female,preAndPostAge8,engleski ,Ne,Chrome,Linux,771,360,16.90138333333333,,native
380,163,condition1,purple_plate,Tanjir,6100,67,plate,[],35.0,Yes,bosanski,,BIH,ijekavica,štokavski,1,1,Da,bosanski,Female,preAndPostAge8,engleski ,Ne,Chrome,Linux,771,360,16.90138333333333,,native
381,163,condition1,green_shovel,Asov,6456,68,shovel,[],35.0,Yes,bosanski,,BIH,ijekavica,štokavski,1,1,Da,bosanski,Female,preAndPostAge8,engleski ,Ne,Chrome,Linux,771,360,16.90138333333333,,native
382,163,condition1,black_necklace,Ogrlica,5570,69,necklace,[],35.0,Yes,bosanski,,BIH,ijekavica,štokavski,1,1,Da,bosanski,Female,preAndPostAge8,engleski ,Ne,Chrome,Linux,771,360,16.90138333333333,,native
383,163,condition1,green_ladle,Kutljaca,4461,70,ladle,[],35.0,Yes,bosanski,,BIH,ijekavica,štokavski,1,1,Da,bosanski,Female,preAndPostAge8,engleski ,Ne,Chrome,Linux,771,360,16.90138333333333,,native
384,163,condition1,black_sponge,Pecat,11938,71,sponge,[],35.0,Yes,bosanski,,BIH,ijekavica,štokavski,1,1,Da,bosanski,Female,preAndPostAge8,engleski ,Ne,Chrome,Linux,771,360,16.90138333333333,,native
385,163,condition1,blue_table,Klupica,11885,72,table,[],35.0,Yes,bosanski,,BIH,ijekavica,štokavski,1,1,Da,bosanski,Female,preAndPostAge8,engleski ,Ne,Chrome,Linux,771,360,16.90138333333333,,native
386,163,condition1,yellow_cap,Kapa,6414,73,cap,[],35.0,Yes,bosanski,,BIH,ijekavica,štokavski,1,1,Da,bosanski,Female,preAndPostAge8,engleski ,Ne,Chrome,Linux,771,360,16.90138333333333,,native
387,163,condition1,white_dress,Haljina,5614,74,dress,[],35.0,Yes,bosanski,,BIH,ijekavica,štokavski,1,1,Da,bosanski,Female,preAndPostAge8,engleski ,Ne,Chrome,Linux,771,360,16.90138333333333,,native
388,163,condition1,black_bench,Klupa,7040,75,bench,[],35.0,Yes,bosanski,,BIH,ijekavica,štokavski,1,1,Da,bosanski,Female,preAndPostAge8,engleski ,Ne,Chrome,Linux,771,360,16.90138333333333,,native
389,163,condition1,purple_lipstick,Karmin,5734,76,lipstick,[],35.0,Yes,bosanski,,BIH,ijekavica,štokavski,1,1,Da,bosanski,Female,preAndPostAge8,engleski ,Ne,Chrome,Linux,771,360,16.90138333333333,,native
390,163,condition1,yellow_key,Kljuc,4718,77,key,[],35.0,Yes,bosanski,,BIH,ijekavica,štokavski,1,1,Da,bosanski,Female,preAndPostAge8,engleski ,Ne,Chrome,Linux,771,360,16.90138333333333,,native
391,163,condition1,white_billiardball,Kugla za bilijar,8839,78,billiardball,[],35.0,Yes,bosanski,,BIH,ijekavica,štokavski,1,1,Da,bosanski,Female,preAndPostAge8,engleski ,Ne,Chrome,Linux,771,360,16.90138333333333,,native
392,163,condition1,black_dresser,Komoda,4493,79,dresser,[],35.0,Yes,bosanski,,BIH,ijekavica,štokavski,1,1,Da,bosanski,Female,preAndPostAge8,engleski ,Ne,Chrome,Linux,771,360,16.90138333333333,,native
393,163,condition1,white_ruler,Linijar,4769,80,ruler,[],35.0,Yes,bosanski,,BIH,ijekavica,štokavski,1,1,Da,bosanski,Female,preAndPostAge8,engleski ,Ne,Chrome,Linux,771,360,16.90138333333333,,native
394,163,condition1,red_dustpan,Lopatica,5319,81,dustpan,[],35.0,Yes,bosanski,,BIH,ijekavica,štokavski,1,1,Da,bosanski,Female,preAndPostAge8,engleski ,Ne,Chrome,Linux,771,360,16.90138333333333,,native
395,163,condition1,green_rope,Snjura,4884,82,rope,[],35.0,Yes,bosanski,,BIH,ijekavica,štokavski,1,1,Da,bosanski,Female,preAndPostAge8,engleski ,Ne,Chrome,Linux,771,360,16.90138333333333,,native
396,163,condition1,red_fence,Ograda,5164,83,fence,[],35.0,Yes,bosanski,,BIH,ijekavica,štokavski,1,1,Da,bosanski,Female,preAndPostAge8,engleski ,Ne,Chrome,Linux,771,360,16.90138333333333,,native
397,163,condition1,yellow_lamp,Lampa,4928,84,lamp,[],35.0,Yes,bosanski,,BIH,ijekavica,štokavski,1,1,Da,bosanski,Female,preAndPostAge8,engleski ,Ne,Chrome,Linux,771,360,16.90138333333333,,native
398,163,condition1,black_shell,Skoljka,5006,85,shell,[],35.0,Yes,bosanski,,BIH,ijekavica,štokavski,1,1,Da,bosanski,Female,preAndPostAge8,engleski ,Ne,Chrome,Linux,771,360,16.90138333333333,,native
399,163,condition1,blue_calculator,Digitron,5243,86,calculator,[],35.0,Yes,bosanski,,BIH,ijekavica,štokavski,1,1,Da,bosanski,Female,preAndPostAge8,engleski ,Ne,Chrome,Linux,771,360,16.90138333333333,,native
400,163,condition1,green_luggage,Kofer,4310,87,luggage,[],35.0,Yes,bosanski,,BIH,ijekavica,štokavski,1,1,Da,bosanski,Female,preAndPostAge8,engleski ,Ne,Chrome,Linux,771,360,16.90138333333333,,native
401,163,condition1,yellow_phone,Telefon,4338,88,phone,[],35.0,Yes,bosanski,,BIH,ijekavica,štokavski,1,1,Da,bosanski,Female,preAndPostAge8,engleski ,Ne,Chrome,Linux,771,360,16.90138333333333,,native
402,163,condition1,yellow_armchair,Fotelja,5103,89,armchair,[],35.0,Yes,bosanski,,BIH,ijekavica,štokavski,1,1,Da,bosanski,Female,preAndPostAge8,engleski ,Ne,Chrome,Linux,771,360,16.90138333333333,,native
403,163,condition1,blue_yarn,Vuna,6526,90,yarn,[],35.0,Yes,bosanski,,BIH,ijekavica,štokavski,1,1,Da,bosanski,Female,preAndPostAge8,engleski ,Ne,Chrome,Linux,771,360,16.90138333333333,,native
404,163,condition1,purple_umbrella,Kisobran,4283,91,umbrella,[],35.0,Yes,bosanski,,BIH,ijekavica,štokavski,1,1,Da,bosanski,Female,preAndPostAge8,engleski ,Ne,Chrome,Linux,771,360,16.90138333333333,,native
405,163,condition1,yellow_stapler,Heftarica,6438,92,stapler,[],35.0,Yes,bosanski,,BIH,ijekavica,štokavski,1,1,Da,bosanski,Female,preAndPostAge8,engleski ,Ne,Chrome,Linux,771,360,16.90138333333333,,native
406,163,condition1,blue_ring,Prsten ,5278,93,ring,[],35.0,Yes,bosanski,,BIH,ijekavica,štokavski,1,1,Da,bosanski,Female,preAndPostAge8,engleski ,Ne,Chrome,Linux,771,360,16.90138333333333,,native
407,163,condition1,yellow_crown,Kruna,4420,94,crown,[],35.0,Yes,bosanski,,BIH,ijekavica,štokavski,1,1,Da,bosanski,Female,preAndPostAge8,engleski ,Ne,Chrome,Linux,771,360,16.90138333333333,,native
408,163,condition1,yellow_mug,Solja,4752,95,mug,[],35.0,Yes,bosanski,,BIH,ijekavica,štokavski,1,1,Da,bosanski,Female,preAndPostAge8,engleski ,Ne,Chrome,Linux,771,360,16.90138333333333,,native
409,163,condition1,black_basket,Korpa,4384,96,basket,[],35.0,Yes,bosanski,,BIH,ijekavica,štokavski,1,1,Da,bosanski,Female,preAndPostAge8,engleski ,Ne,Chrome,Linux,771,360,16.90138333333333,,native
410,163,condition1,red_comb,Cesalj,4290,97,comb,[],35.0,Yes,bosanski,,BIH,ijekavica,štokavski,1,1,Da,bosanski,Female,preAndPostAge8,engleski ,Ne,Chrome,Linux,771,360,16.90138333333333,,native
411,163,condition1,purple_tent,Sator,4516,98,tent,[],35.0,Yes,bosanski,,BIH,ijekavica,štokavski,1,1,Da,bosanski,Female,preAndPostAge8,engleski ,Ne,Chrome,Linux,771,360,16.90138333333333,,native
412,163,condition1,yellow_mask,Maska,6917,99,mask,[],35.0,Yes,bosanski,,BIH,ijekavica,štokavski,1,1,Da,bosanski,Female,preAndPostAge8,engleski ,Ne,Chrome,Linux,771,360,16.90138333333333,,native
413,163,condition1,white_door,Vrata,4349,100,door,[],35.0,Yes,bosanski,,BIH,ijekavica,štokavski,1,1,Da,bosanski,Female,preAndPostAge8,engleski ,Ne,Chrome,Linux,771,360,16.90138333333333,,native
414,163,condition1,purple_tv,Televizor,4860,101,tv,[],35.0,Yes,bosanski,,BIH,ijekavica,štokavski,1,1,Da,bosanski,Female,preAndPostAge8,engleski ,Ne,Chrome,Linux,771,360,16.90138333333333,,native
415,163,condition1,black_ribbon,Masna,4292,102,ribbon,[],35.0,Yes,bosanski,,BIH,ijekavica,štokavski,1,1,Da,bosanski,Female,preAndPostAge8,engleski ,Ne,Chrome,Linux,771,360,16.90138333333333,,native
416,163,condition1,green_purse,Torbica,5099,103,purse,[],35.0,Yes,bosanski,,BIH,ijekavica,štokavski,1,1,Da,bosanski,Female,preAndPostAge8,engleski ,Ne,Chrome,Linux,771,360,16.90138333333333,,native
417,163,condition1,purple_camera,Fotoaparat,10885,104,camera,[],35.0,Yes,bosanski,,BIH,ijekavica,štokavski,1,1,Da,bosanski,Female,preAndPostAge8,engleski ,Ne,Chrome,Linux,771,360,16.90138333333333,,native
418,163,condition1,blue_present,Poklon kutija,7215,105,present,[],35.0,Yes,bosanski,,BIH,ijekavica,štokavski,1,1,Da,bosanski,Female,preAndPostAge8,engleski ,Ne,Chrome,Linux,771,360,16.90138333333333,,native
419,163,condition1,black_airplane,Avion,4523,106,airplane,[],35.0,Yes,bosanski,,BIH,ijekavica,štokavski,1,1,Da,bosanski,Female,preAndPostAge8,engleski ,Ne,Chrome,Linux,771,360,16.90138333333333,,native
420,239,condition1,red_shirt,Majica,9950,2,shirt,[],46.0,Yes,srpski,Iskreno pokazuje da posle oko dvadeset godina u inostranstvu jezik se postepeno zaboravlja. Smatram da je ovo bila dobra vezba za mene i pokazatelj gde se nalazim sa jezikom. Hvala!,SRB,ekavica,štokavski,3,2,da,srpski,Female,preAndPostAge8,"engleski, ruski",Za nekoliko pitanja nisam mogla da se setim reci ili sam imala problema da kliknem do sledece slike.,Chrome,Windows,864,1536,26.9939,,native
421,239,condition1,green_shovel,Lopata,7831,3,shovel,[],46.0,Yes,srpski,Iskreno pokazuje da posle oko dvadeset godina u inostranstvu jezik se postepeno zaboravlja. Smatram da je ovo bila dobra vezba za mene i pokazatelj gde se nalazim sa jezikom. Hvala!,SRB,ekavica,štokavski,3,2,da,srpski,Female,preAndPostAge8,"engleski, ruski",Za nekoliko pitanja nisam mogla da se setim reci ili sam imala problema da kliknem do sledece slike.,Chrome,Windows,864,1536,26.9939,,native
422,239,condition1,black_binoculars,Dvogled,15894,4,binoculars,[],46.0,Yes,srpski,Iskreno pokazuje da posle oko dvadeset godina u inostranstvu jezik se postepeno zaboravlja. Smatram da je ovo bila dobra vezba za mene i pokazatelj gde se nalazim sa jezikom. Hvala!,SRB,ekavica,štokavski,3,2,da,srpski,Female,preAndPostAge8,"engleski, ruski",Za nekoliko pitanja nisam mogla da se setim reci ili sam imala problema da kliknem do sledece slike.,Chrome,Windows,864,1536,26.9939,,native
423,239,condition1,orange_whistle,Pistaljka,7841,5,whistle,[],46.0,Yes,srpski,Iskreno pokazuje da posle oko dvadeset godina u inostranstvu jezik se postepeno zaboravlja. Smatram da je ovo bila dobra vezba za mene i pokazatelj gde se nalazim sa jezikom. Hvala!,SRB,ekavica,štokavski,3,2,da,srpski,Female,preAndPostAge8,"engleski, ruski",Za nekoliko pitanja nisam mogla da se setim reci ili sam imala problema da kliknem do sledece slike.,Chrome,Windows,864,1536,26.9939,,native
424,239,condition1,blue_candle,Sveca,6441,6,candle,[],46.0,Yes,srpski,Iskreno pokazuje da posle oko dvadeset godina u inostranstvu jezik se postepeno zaboravlja. Smatram da je ovo bila dobra vezba za mene i pokazatelj gde se nalazim sa jezikom. Hvala!,SRB,ekavica,štokavski,3,2,da,srpski,Female,preAndPostAge8,"engleski, ruski",Za nekoliko pitanja nisam mogla da se setim reci ili sam imala problema da kliknem do sledece slike.,Chrome,Windows,864,1536,26.9939,,native
425,239,condition1,blue_key,Kljuc,7172,7,key,[],46.0,Yes,srpski,Iskreno pokazuje da posle oko dvadeset godina u inostranstvu jezik se postepeno zaboravlja. Smatram da je ovo bila dobra vezba za mene i pokazatelj gde se nalazim sa jezikom. Hvala!,SRB,ekavica,štokavski,3,2,da,srpski,Female,preAndPostAge8,"engleski, ruski",Za nekoliko pitanja nisam mogla da se setim reci ili sam imala problema da kliknem do sledece slike.,Chrome,Windows,864,1536,26.9939,,native
426,239,condition1,white_mask,Maska,9637,8,mask,[],46.0,Yes,srpski,Iskreno pokazuje da posle oko dvadeset godina u inostranstvu jezik se postepeno zaboravlja. Smatram da je ovo bila dobra vezba za mene i pokazatelj gde se nalazim sa jezikom. Hvala!,SRB,ekavica,štokavski,3,2,da,srpski,Female,preAndPostAge8,"engleski, ruski",Za nekoliko pitanja nisam mogla da se setim reci ili sam imala problema da kliknem do sledece slike.,Chrome,Windows,864,1536,26.9939,,native
427,239,condition1,black_razor,Brijac,7436,9,razor,[],46.0,Yes,srpski,Iskreno pokazuje da posle oko dvadeset godina u inostranstvu jezik se postepeno zaboravlja. Smatram da je ovo bila dobra vezba za mene i pokazatelj gde se nalazim sa jezikom. Hvala!,SRB,ekavica,štokavski,3,2,da,srpski,Female,preAndPostAge8,"engleski, ruski",Za nekoliko pitanja nisam mogla da se setim reci ili sam imala problema da kliknem do sledece slike.,Chrome,Windows,864,1536,26.9939,,native
428,239,condition1,blue_yarn,Vuna,7535,10,yarn,[],46.0,Yes,srpski,Iskreno pokazuje da posle oko dvadeset godina u inostranstvu jezik se postepeno zaboravlja. Smatram da je ovo bila dobra vezba za mene i pokazatelj gde se nalazim sa jezikom. Hvala!,SRB,ekavica,štokavski,3,2,da,srpski,Female,preAndPostAge8,"engleski, ruski",Za nekoliko pitanja nisam mogla da se setim reci ili sam imala problema da kliknem do sledece slike.,Chrome,Windows,864,1536,26.9939,,native
429,239,condition1,red_frame,Ram za slike,19423,11,frame,[],46.0,Yes,srpski,Iskreno pokazuje da posle oko dvadeset godina u inostranstvu jezik se postepeno zaboravlja. Smatram da je ovo bila dobra vezba za mene i pokazatelj gde se nalazim sa jezikom. Hvala!,SRB,ekavica,štokavski,3,2,da,srpski,Female,preAndPostAge8,"engleski, ruski",Za nekoliko pitanja nisam mogla da se setim reci ili sam imala problema da kliknem do sledece slike.,Chrome,Windows,864,1536,26.9939,,native
430,239,condition1,red_calculator,Kalkulator,70208,12,calculator,[],46.0,Yes,srpski,Iskreno pokazuje da posle oko dvadeset godina u inostranstvu jezik se postepeno zaboravlja. Smatram da je ovo bila dobra vezba za mene i pokazatelj gde se nalazim sa jezikom. Hvala!,SRB,ekavica,štokavski,3,2,da,srpski,Female,preAndPostAge8,"engleski, ruski",Za nekoliko pitanja nisam mogla da se setim reci ili sam imala problema da kliknem do sledece slike.,Chrome,Windows,864,1536,26.9939,,native
431,239,condition1,green_boot,Cizma,6969,13,boot,[],46.0,Yes,srpski,Iskreno pokazuje da posle oko dvadeset godina u inostranstvu jezik se postepeno zaboravlja. Smatram da je ovo bila dobra vezba za mene i pokazatelj gde se nalazim sa jezikom. Hvala!,SRB,ekavica,štokavski,3,2,da,srpski,Female,preAndPostAge8,"engleski, ruski",Za nekoliko pitanja nisam mogla da se setim reci ili sam imala problema da kliknem do sledece slike.,Chrome,Windows,864,1536,26.9939,,native
432,239,condition1,yellow_flower,Cvet,7800,14,flower,[],46.0,Yes,srpski,Iskreno pokazuje da posle oko dvadeset godina u inostranstvu jezik se postepeno zaboravlja. Smatram da je ovo bila dobra vezba za mene i pokazatelj gde se nalazim sa jezikom. Hvala!,SRB,ekavica,štokavski,3,2,da,srpski,Female,preAndPostAge8,"engleski, ruski",Za nekoliko pitanja nisam mogla da se setim reci ili sam imala problema da kliknem do sledece slike.,Chrome,Windows,864,1536,26.9939,,native
433,239,condition1,red_guitar,Elektricna Gitara,20470,15,guitar,[],46.0,Yes,srpski,Iskreno pokazuje da posle oko dvadeset godina u inostranstvu jezik se postepeno zaboravlja. Smatram da je ovo bila dobra vezba za mene i pokazatelj gde se nalazim sa jezikom. Hvala!,SRB,ekavica,štokavski,3,2,da,srpski,Female,preAndPostAge8,"engleski, ruski",Za nekoliko pitanja nisam mogla da se setim reci ili sam imala problema da kliknem do sledece slike.,Chrome,Windows,864,1536,26.9939,,native
434,239,condition1,purple_lock,Privezak,35737,16,lock,[],46.0,Yes,srpski,Iskreno pokazuje da posle oko dvadeset godina u inostranstvu jezik se postepeno zaboravlja. Smatram da je ovo bila dobra vezba za mene i pokazatelj gde se nalazim sa jezikom. Hvala!,SRB,ekavica,štokavski,3,2,da,srpski,Female,preAndPostAge8,"engleski, ruski",Za nekoliko pitanja nisam mogla da se setim reci ili sam imala problema da kliknem do sledece slike.,Chrome,Windows,864,1536,26.9939,,native
435,239,condition1,white_crown,Kruna,7163,17,crown,[],46.0,Yes,srpski,Iskreno pokazuje da posle oko dvadeset godina u inostranstvu jezik se postepeno zaboravlja. Smatram da je ovo bila dobra vezba za mene i pokazatelj gde se nalazim sa jezikom. Hvala!,SRB,ekavica,štokavski,3,2,da,srpski,Female,preAndPostAge8,"engleski, ruski",Za nekoliko pitanja nisam mogla da se setim reci ili sam imala problema da kliknem do sledece slike.,Chrome,Windows,864,1536,26.9939,,native
436,239,condition1,purple_sock,Carapa,7041,18,sock,[],46.0,Yes,srpski,Iskreno pokazuje da posle oko dvadeset godina u inostranstvu jezik se postepeno zaboravlja. Smatram da je ovo bila dobra vezba za mene i pokazatelj gde se nalazim sa jezikom. Hvala!,SRB,ekavica,štokavski,3,2,da,srpski,Female,preAndPostAge8,"engleski, ruski",Za nekoliko pitanja nisam mogla da se setim reci ili sam imala problema da kliknem do sledece slike.,Chrome,Windows,864,1536,26.9939,,native
