,workerid,proliferate.condition,object,response,rt,slide_number_in_experiment,utterance,catch_trials,subject_information.age,subject_information.asses,schoolLanguage,subject_information.comments,country,subject_information.dialectOne,subject_information.dialectTwo,subject_information.education,subject_information.enjoyment,subject_information.fairprice,firstLanguage,subject_information.gender,subject_information.liveInYugo,otherLanguage,subject_information.problems,system.Browser,system.OS,system.screenH,system.screenW,time_in_minutes,error,status
0,463,condition1,orange_tie,kravata,7492,2,tie,[],23.0,Yes,slovenski,,SI,ekavica,kajkavski,1,-1,,"slovenski, hrvatski",Female,preAndPostAge8,engleski,,Chrome,Windows,1080,1920,33.476866666666666,,simk
1,463,condition1,purple_calendar,"
kalendar",6915,3,calendar,[],23.0,Yes,slovenski,,SI,ekavica,kajkavski,1,-1,,"slovenski, hrvatski",Female,preAndPostAge8,engleski,,Chrome,Windows,1080,1920,33.476866666666666,,simk
2,463,condition1,red_bed,"
krevet",6103,4,bed,[],23.0,Yes,slovenski,,SI,ekavica,kajkavski,1,-1,,"slovenski, hrvatski",Female,preAndPostAge8,engleski,,Chrome,Windows,1080,1920,33.476866666666666,,simk
3,463,condition1,green_dresser,"
komoda",39712,5,dresser,[],23.0,Yes,slovenski,,SI,ekavica,kajkavski,1,-1,,"slovenski, hrvatski",Female,preAndPostAge8,engleski,,Chrome,Windows,1080,1920,33.476866666666666,,simk
4,463,condition1,purple_razor,"
britva",153086,6,razor,[],23.0,Yes,slovenski,,SI,ekavica,kajkavski,1,-1,,"slovenski, hrvatski",Female,preAndPostAge8,engleski,,Chrome,Windows,1080,1920,33.476866666666666,,simk
5,463,condition1,red_ring,"
prsten",7653,7,ring,[],23.0,Yes,slovenski,,SI,ekavica,kajkavski,1,-1,,"slovenski, hrvatski",Female,preAndPostAge8,engleski,,Chrome,Windows,1080,1920,33.476866666666666,,simk
6,463,condition1,white_shirt,"
majica",5245,8,shirt,[],23.0,Yes,slovenski,,SI,ekavica,kajkavski,1,-1,,"slovenski, hrvatski",Female,preAndPostAge8,engleski,,Chrome,Windows,1080,1920,33.476866666666666,,simk
7,463,condition1,orange_fork,"
viljuška",6923,9,fork,[],23.0,Yes,slovenski,,SI,ekavica,kajkavski,1,-1,,"slovenski, hrvatski",Female,preAndPostAge8,engleski,,Chrome,Windows,1080,1920,33.476866666666666,,simk
8,463,condition1,orange_plate,"
tanjir",5408,10,plate,[],23.0,Yes,slovenski,,SI,ekavica,kajkavski,1,-1,,"slovenski, hrvatski",Female,preAndPostAge8,engleski,,Chrome,Windows,1080,1920,33.476866666666666,,simk
9,463,condition1,yellow_fence,"
ograda",4307,11,fence,[],23.0,Yes,slovenski,,SI,ekavica,kajkavski,1,-1,,"slovenski, hrvatski",Female,preAndPostAge8,engleski,,Chrome,Windows,1080,1920,33.476866666666666,,simk
10,463,condition1,purple_purse,"
torba",7544,12,purse,[],23.0,Yes,slovenski,,SI,ekavica,kajkavski,1,-1,,"slovenski, hrvatski",Female,preAndPostAge8,engleski,,Chrome,Windows,1080,1920,33.476866666666666,,simk
11,463,condition1,blue_coathanger,"
vješalica",18006,13,coathanger,[],23.0,Yes,slovenski,,SI,ekavica,kajkavski,1,-1,,"slovenski, hrvatski",Female,preAndPostAge8,engleski,,Chrome,Windows,1080,1920,33.476866666666666,,simk
12,463,condition1,purple_lock,"
lokot",107338,14,lock,[],23.0,Yes,slovenski,,SI,ekavica,kajkavski,1,-1,,"slovenski, hrvatski",Female,preAndPostAge8,engleski,,Chrome,Windows,1080,1920,33.476866666666666,,simk
13,463,condition1,black_glove,"
rukavica",3988,15,glove,[],23.0,Yes,slovenski,,SI,ekavica,kajkavski,1,-1,,"slovenski, hrvatski",Female,preAndPostAge8,engleski,,Chrome,Windows,1080,1920,33.476866666666666,,simk
14,463,condition1,black_whistle,"
žviždaljka",55728,16,whistle,[],23.0,Yes,slovenski,,SI,ekavica,kajkavski,1,-1,,"slovenski, hrvatski",Female,preAndPostAge8,engleski,,Chrome,Windows,1080,1920,33.476866666666666,,simk
15,463,condition1,red_key,"
ključ",3498,17,key,[],23.0,Yes,slovenski,,SI,ekavica,kajkavski,1,-1,,"slovenski, hrvatski",Female,preAndPostAge8,engleski,,Chrome,Windows,1080,1920,33.476866666666666,,simk
16,463,condition1,purple_fish,"
riba",2456,18,fish,[],23.0,Yes,slovenski,,SI,ekavica,kajkavski,1,-1,,"slovenski, hrvatski",Female,preAndPostAge8,engleski,,Chrome,Windows,1080,1920,33.476866666666666,,simk
17,463,condition1,purple_ladle,"
kutljača",7807,19,ladle,[],23.0,Yes,slovenski,,SI,ekavica,kajkavski,1,-1,,"slovenski, hrvatski",Female,preAndPostAge8,engleski,,Chrome,Windows,1080,1920,33.476866666666666,,simk
18,463,condition1,purple_shield,"
štit",5466,20,shield,[],23.0,Yes,slovenski,,SI,ekavica,kajkavski,1,-1,,"slovenski, hrvatski",Female,preAndPostAge8,engleski,,Chrome,Windows,1080,1920,33.476866666666666,,simk
19,463,condition1,red_fryingpan,"
tava",21257,21,fryingpan,[],23.0,Yes,slovenski,,SI,ekavica,kajkavski,1,-1,,"slovenski, hrvatski",Female,preAndPostAge8,engleski,,Chrome,Windows,1080,1920,33.476866666666666,,simk
20,463,condition1,orange_necklace,"
ogrkica",17134,22,necklace,[],23.0,Yes,slovenski,,SI,ekavica,kajkavski,1,-1,,"slovenski, hrvatski",Female,preAndPostAge8,engleski,,Chrome,Windows,1080,1920,33.476866666666666,,simk
21,463,condition1,white_pencil,"
olovka",24760,23,pencil,[],23.0,Yes,slovenski,,SI,ekavica,kajkavski,1,-1,,"slovenski, hrvatski",Female,preAndPostAge8,engleski,,Chrome,Windows,1080,1920,33.476866666666666,,simk
22,463,condition1,white_mouse,"
kompjuterski miš",118207,24,mouse,[],23.0,Yes,slovenski,,SI,ekavica,kajkavski,1,-1,,"slovenski, hrvatski",Female,preAndPostAge8,engleski,,Chrome,Windows,1080,1920,33.476866666666666,,simk
23,463,condition1,blue_dustpan,"
lopatica",257219,25,dustpan,[],23.0,Yes,slovenski,,SI,ekavica,kajkavski,1,-1,,"slovenski, hrvatski",Female,preAndPostAge8,engleski,,Chrome,Windows,1080,1920,33.476866666666666,,simk
24,463,condition1,black_sock,"
čarapa",4251,26,sock,[],23.0,Yes,slovenski,,SI,ekavica,kajkavski,1,-1,,"slovenski, hrvatski",Female,preAndPostAge8,engleski,,Chrome,Windows,1080,1920,33.476866666666666,,simk
25,463,condition1,red_book,"
knjiga",2664,27,book,[],23.0,Yes,slovenski,,SI,ekavica,kajkavski,1,-1,,"slovenski, hrvatski",Female,preAndPostAge8,engleski,,Chrome,Windows,1080,1920,33.476866666666666,,simk
26,463,condition1,purple_knife,"
nož",3226,28,knife,[],23.0,Yes,slovenski,,SI,ekavica,kajkavski,1,-1,,"slovenski, hrvatski",Female,preAndPostAge8,engleski,,Chrome,Windows,1080,1920,33.476866666666666,,simk
27,463,condition1,white_cushion,"
jastuk",3985,29,cushion,[],23.0,Yes,slovenski,,SI,ekavica,kajkavski,1,-1,,"slovenski, hrvatski",Female,preAndPostAge8,engleski,,Chrome,Windows,1080,1920,33.476866666666666,,simk
28,463,condition1,blue_flower,"
ruža",1753,30,flower,[],23.0,Yes,slovenski,,SI,ekavica,kajkavski,1,-1,,"slovenski, hrvatski",Female,preAndPostAge8,engleski,,Chrome,Windows,1080,1920,33.476866666666666,,simk
29,463,condition1,white_wallet,"
novčanik",5513,31,wallet,[],23.0,Yes,slovenski,,SI,ekavica,kajkavski,1,-1,,"slovenski, hrvatski",Female,preAndPostAge8,engleski,,Chrome,Windows,1080,1920,33.476866666666666,,simk
30,463,condition1,red_stapler,"
klamerica",15802,32,stapler,[],23.0,Yes,slovenski,,SI,ekavica,kajkavski,1,-1,,"slovenski, hrvatski",Female,preAndPostAge8,engleski,,Chrome,Windows,1080,1920,33.476866666666666,,simk
31,463,condition1,orange_airplane,"
avion",8049,33,airplane,[],23.0,Yes,slovenski,,SI,ekavica,kajkavski,1,-1,,"slovenski, hrvatski",Female,preAndPostAge8,engleski,,Chrome,Windows,1080,1920,33.476866666666666,,simk
32,463,condition1,white_crown,"
kruna",3221,34,crown,[],23.0,Yes,slovenski,,SI,ekavica,kajkavski,1,-1,,"slovenski, hrvatski",Female,preAndPostAge8,engleski,,Chrome,Windows,1080,1920,33.476866666666666,,simk
33,463,condition1,purple_remote,"
daljinski",7465,35,remote,[],23.0,Yes,slovenski,,SI,ekavica,kajkavski,1,-1,,"slovenski, hrvatski",Female,preAndPostAge8,engleski,,Chrome,Windows,1080,1920,33.476866666666666,,simk
34,463,condition1,blue_bucket,"
kanta",16427,36,bucket,[],23.0,Yes,slovenski,,SI,ekavica,kajkavski,1,-1,,"slovenski, hrvatski",Female,preAndPostAge8,engleski,,Chrome,Windows,1080,1920,33.476866666666666,,simk
35,463,condition1,black_hammer,"
čekić",11812,37,hammer,[],23.0,Yes,slovenski,,SI,ekavica,kajkavski,1,-1,,"slovenski, hrvatski",Female,preAndPostAge8,engleski,,Chrome,Windows,1080,1920,33.476866666666666,,simk
36,463,condition1,yellow_chair,"
stolica",18935,38,chair,[],23.0,Yes,slovenski,,SI,ekavica,kajkavski,1,-1,,"slovenski, hrvatski",Female,preAndPostAge8,engleski,,Chrome,Windows,1080,1920,33.476866666666666,,simk
37,463,condition1,blue_billiardball,"
kugla",6871,39,billiardball,[],23.0,Yes,slovenski,,SI,ekavica,kajkavski,1,-1,,"slovenski, hrvatski",Female,preAndPostAge8,engleski,,Chrome,Windows,1080,1920,33.476866666666666,,simk
38,463,condition1,blue_dress,"
haljina",15030,40,dress,[],23.0,Yes,slovenski,,SI,ekavica,kajkavski,1,-1,,"slovenski, hrvatski",Female,preAndPostAge8,engleski,,Chrome,Windows,1080,1920,33.476866666666666,,simk
39,463,condition1,red_phone,"
telefon",5094,41,phone,[],23.0,Yes,slovenski,,SI,ekavica,kajkavski,1,-1,,"slovenski, hrvatski",Female,preAndPostAge8,engleski,,Chrome,Windows,1080,1920,33.476866666666666,,simk
40,463,condition1,black_shell,"
školjka",4805,42,shell,[],23.0,Yes,slovenski,,SI,ekavica,kajkavski,1,-1,,"slovenski, hrvatski",Female,preAndPostAge8,engleski,,Chrome,Windows,1080,1920,33.476866666666666,,simk
41,463,condition1,white_butterfly,"
leptir",5234,43,butterfly,[],23.0,Yes,slovenski,,SI,ekavica,kajkavski,1,-1,,"slovenski, hrvatski",Female,preAndPostAge8,engleski,,Chrome,Windows,1080,1920,33.476866666666666,,simk
42,463,condition1,orange_basket,"
košara",9290,44,basket,[],23.0,Yes,slovenski,,SI,ekavica,kajkavski,1,-1,,"slovenski, hrvatski",Female,preAndPostAge8,engleski,,Chrome,Windows,1080,1920,33.476866666666666,,simk
43,463,condition1,yellow_armchair,"
stolica",42367,45,armchair,[],23.0,Yes,slovenski,,SI,ekavica,kajkavski,1,-1,,"slovenski, hrvatski",Female,preAndPostAge8,engleski,,Chrome,Windows,1080,1920,33.476866666666666,,simk
44,463,condition1,black_box,"
kutija",12772,46,box,[],23.0,Yes,slovenski,,SI,ekavica,kajkavski,1,-1,,"slovenski, hrvatski",Female,preAndPostAge8,engleski,,Chrome,Windows,1080,1920,33.476866666666666,,simk
45,463,condition1,black_ribbon,"
mašna",2649,47,ribbon,[],23.0,Yes,slovenski,,SI,ekavica,kajkavski,1,-1,,"slovenski, hrvatski",Female,preAndPostAge8,engleski,,Chrome,Windows,1080,1920,33.476866666666666,,simk
46,463,condition1,orange_bench,"
klupa",6777,48,bench,[],23.0,Yes,slovenski,,SI,ekavica,kajkavski,1,-1,,"slovenski, hrvatski",Female,preAndPostAge8,engleski,,Chrome,Windows,1080,1920,33.476866666666666,,simk
47,463,condition1,green_spoon,"
kašika",4234,49,spoon,[],23.0,Yes,slovenski,,SI,ekavica,kajkavski,1,-1,,"slovenski, hrvatski",Female,preAndPostAge8,engleski,,Chrome,Windows,1080,1920,33.476866666666666,,simk
48,463,condition1,purple_binoculars,"
dvogled",41646,50,binoculars,[],23.0,Yes,slovenski,,SI,ekavica,kajkavski,1,-1,,"slovenski, hrvatski",Female,preAndPostAge8,engleski,,Chrome,Windows,1080,1920,33.476866666666666,,simk
49,463,condition1,green_microscope,"
mikroskop",24558,51,microscope,[],23.0,Yes,slovenski,,SI,ekavica,kajkavski,1,-1,,"slovenski, hrvatski",Female,preAndPostAge8,engleski,,Chrome,Windows,1080,1920,33.476866666666666,,simk
50,463,condition1,black_die,"
kocka",6467,52,die,[],23.0,Yes,slovenski,,SI,ekavica,kajkavski,1,-1,,"slovenski, hrvatski",Female,preAndPostAge8,engleski,,Chrome,Windows,1080,1920,33.476866666666666,,simk
51,463,condition1,blue_magnifyingglass,"
povećalo",63178,53,magnifyingglass,[],23.0,Yes,slovenski,,SI,ekavica,kajkavski,1,-1,,"slovenski, hrvatski",Female,preAndPostAge8,engleski,,Chrome,Windows,1080,1920,33.476866666666666,,simk
52,463,condition1,orange_lipstick,"
ruž",4256,54,lipstick,[],23.0,Yes,slovenski,,SI,ekavica,kajkavski,1,-1,,"slovenski, hrvatski",Female,preAndPostAge8,engleski,,Chrome,Windows,1080,1920,33.476866666666666,,simk
53,463,condition1,blue_table,"
klupa",3426,55,table,[],23.0,Yes,slovenski,,SI,ekavica,kajkavski,1,-1,,"slovenski, hrvatski",Female,preAndPostAge8,engleski,,Chrome,Windows,1080,1920,33.476866666666666,,simk
54,463,condition1,purple_tent,"
šator",2864,56,tent,[],23.0,Yes,slovenski,,SI,ekavica,kajkavski,1,-1,,"slovenski, hrvatski",Female,preAndPostAge8,engleski,,Chrome,Windows,1080,1920,33.476866666666666,,simk
55,463,condition1,green_luggage,"
kofer",14297,57,luggage,[],23.0,Yes,slovenski,,SI,ekavica,kajkavski,1,-1,,"slovenski, hrvatski",Female,preAndPostAge8,engleski,,Chrome,Windows,1080,1920,33.476866666666666,,simk
56,463,condition1,orange_bandaid,"
zakrpa",16796,58,bandaid,[],23.0,Yes,slovenski,,SI,ekavica,kajkavski,1,-1,,"slovenski, hrvatski",Female,preAndPostAge8,engleski,,Chrome,Windows,1080,1920,33.476866666666666,,simk
57,463,condition1,blue_rug,"
tepih",13465,59,rug,[],23.0,Yes,slovenski,,SI,ekavica,kajkavski,1,-1,,"slovenski, hrvatski",Female,preAndPostAge8,engleski,,Chrome,Windows,1080,1920,33.476866666666666,,simk
58,463,condition1,orange_duck,"
patka",13443,60,duck,[],23.0,Yes,slovenski,,SI,ekavica,kajkavski,1,-1,,"slovenski, hrvatski",Female,preAndPostAge8,engleski,,Chrome,Windows,1080,1920,33.476866666666666,,simk
59,463,condition1,yellow_binder,"
mapa",33056,61,binder,[],23.0,Yes,slovenski,,SI,ekavica,kajkavski,1,-1,,"slovenski, hrvatski",Female,preAndPostAge8,engleski,,Chrome,Windows,1080,1920,33.476866666666666,,simk
60,463,condition1,green_boot,"
cipela",7258,62,boot,[],23.0,Yes,slovenski,,SI,ekavica,kajkavski,1,-1,,"slovenski, hrvatski",Female,preAndPostAge8,engleski,,Chrome,Windows,1080,1920,33.476866666666666,,simk
61,463,condition1,white_comb,"
češalj",6407,63,comb,[],23.0,Yes,slovenski,,SI,ekavica,kajkavski,1,-1,,"slovenski, hrvatski",Female,preAndPostAge8,engleski,,Chrome,Windows,1080,1920,33.476866666666666,,simk
62,463,condition1,blue_iron,"
pegla",4894,64,iron,[],23.0,Yes,slovenski,,SI,ekavica,kajkavski,1,-1,,"slovenski, hrvatski",Female,preAndPostAge8,engleski,,Chrome,Windows,1080,1920,33.476866666666666,,simk
63,463,condition1,purple_umbrella,"
kišobran",7319,65,umbrella,[],23.0,Yes,slovenski,,SI,ekavica,kajkavski,1,-1,,"slovenski, hrvatski",Female,preAndPostAge8,engleski,,Chrome,Windows,1080,1920,33.476866666666666,,simk
64,463,condition1,white_ornament,"
ukras",25759,66,ornament,[],23.0,Yes,slovenski,,SI,ekavica,kajkavski,1,-1,,"slovenski, hrvatski",Female,preAndPostAge8,engleski,,Chrome,Windows,1080,1920,33.476866666666666,,simk
65,463,condition1,purple_truck,"
kamion",4637,67,truck,[],23.0,Yes,slovenski,,SI,ekavica,kajkavski,1,-1,,"slovenski, hrvatski",Female,preAndPostAge8,engleski,,Chrome,Windows,1080,1920,33.476866666666666,,simk
66,463,condition1,white_guitar,"
gitara",45018,68,guitar,[],23.0,Yes,slovenski,,SI,ekavica,kajkavski,1,-1,,"slovenski, hrvatski",Female,preAndPostAge8,engleski,,Chrome,Windows,1080,1920,33.476866666666666,,simk
67,463,condition1,blue_door,"
vrata",5310,69,door,[],23.0,Yes,slovenski,,SI,ekavica,kajkavski,1,-1,,"slovenski, hrvatski",Female,preAndPostAge8,engleski,,Chrome,Windows,1080,1920,33.476866666666666,,simk
68,463,condition1,orange_camera,"
fotoaparat",6703,70,camera,[],23.0,Yes,slovenski,,SI,ekavica,kajkavski,1,-1,,"slovenski, hrvatski",Female,preAndPostAge8,engleski,,Chrome,Windows,1080,1920,33.476866666666666,,simk
69,463,condition1,white_napkin,"
marama",7530,71,napkin,[],23.0,Yes,slovenski,,SI,ekavica,kajkavski,1,-1,,"slovenski, hrvatski",Female,preAndPostAge8,engleski,,Chrome,Windows,1080,1920,33.476866666666666,,simk
70,463,condition1,yellow_switch,"
prekidač",33279,72,switch,[],23.0,Yes,slovenski,,SI,ekavica,kajkavski,1,-1,,"slovenski, hrvatski",Female,preAndPostAge8,engleski,,Chrome,Windows,1080,1920,33.476866666666666,,simk
71,463,condition1,blue_clock,"
sat",2795,73,clock,[],23.0,Yes,slovenski,,SI,ekavica,kajkavski,1,-1,,"slovenski, hrvatski",Female,preAndPostAge8,engleski,,Chrome,Windows,1080,1920,33.476866666666666,,simk
72,463,condition1,red_balloon,"
balon",2675,74,balloon,[],23.0,Yes,slovenski,,SI,ekavica,kajkavski,1,-1,,"slovenski, hrvatski",Female,preAndPostAge8,engleski,,Chrome,Windows,1080,1920,33.476866666666666,,simk
73,463,condition1,white_bracelet,"
narukvica",32250,75,bracelet,[],23.0,Yes,slovenski,,SI,ekavica,kajkavski,1,-1,,"slovenski, hrvatski",Female,preAndPostAge8,engleski,,Chrome,Windows,1080,1920,33.476866666666666,,simk
74,463,condition1,white_yarn,"
vuna",9885,76,yarn,[],23.0,Yes,slovenski,,SI,ekavica,kajkavski,1,-1,,"slovenski, hrvatski",Female,preAndPostAge8,engleski,,Chrome,Windows,1080,1920,33.476866666666666,,simk
75,463,condition1,yellow_sword,"
mač",3975,77,sword,[],23.0,Yes,slovenski,,SI,ekavica,kajkavski,1,-1,,"slovenski, hrvatski",Female,preAndPostAge8,engleski,,Chrome,Windows,1080,1920,33.476866666666666,,simk
76,463,condition1,blue_bike,"
biciklo",3426,78,bike,[],23.0,Yes,slovenski,,SI,ekavica,kajkavski,1,-1,,"slovenski, hrvatski",Female,preAndPostAge8,engleski,,Chrome,Windows,1080,1920,33.476866666666666,,simk
77,463,condition1,orange_shovel,"
lopata",3147,79,shovel,[],23.0,Yes,slovenski,,SI,ekavica,kajkavski,1,-1,,"slovenski, hrvatski",Female,preAndPostAge8,engleski,,Chrome,Windows,1080,1920,33.476866666666666,,simk
78,463,condition1,blue_present,"
dar",15091,80,present,[],23.0,Yes,slovenski,,SI,ekavica,kajkavski,1,-1,,"slovenski, hrvatski",Female,preAndPostAge8,engleski,,Chrome,Windows,1080,1920,33.476866666666666,,simk
79,463,condition1,green_radio,"
radio",3338,81,radio,[],23.0,Yes,slovenski,,SI,ekavica,kajkavski,1,-1,,"slovenski, hrvatski",Female,preAndPostAge8,engleski,,Chrome,Windows,1080,1920,33.476866666666666,,simk
80,463,condition1,white_belt,"
kajš",3446,82,belt,[],23.0,Yes,slovenski,,SI,ekavica,kajkavski,1,-1,,"slovenski, hrvatski",Female,preAndPostAge8,engleski,,Chrome,Windows,1080,1920,33.476866666666666,,simk
81,463,condition1,red_ruler,"
ravnalo",53109,83,ruler,[],23.0,Yes,slovenski,,SI,ekavica,kajkavski,1,-1,,"slovenski, hrvatski",Female,preAndPostAge8,engleski,,Chrome,Windows,1080,1920,33.476866666666666,,simk
82,463,condition1,white_notebook,"
svjeska",6762,84,notebook,[],23.0,Yes,slovenski,,SI,ekavica,kajkavski,1,-1,,"slovenski, hrvatski",Female,preAndPostAge8,engleski,,Chrome,Windows,1080,1920,33.476866666666666,,simk
83,463,condition1,green_tv,"
televizor",6407,85,tv,[],23.0,Yes,slovenski,,SI,ekavica,kajkavski,1,-1,,"slovenski, hrvatski",Female,preAndPostAge8,engleski,,Chrome,Windows,1080,1920,33.476866666666666,,simk
84,463,condition1,blue_lamp,"
lampa",4037,86,lamp,[],23.0,Yes,slovenski,,SI,ekavica,kajkavski,1,-1,,"slovenski, hrvatski",Female,preAndPostAge8,engleski,,Chrome,Windows,1080,1920,33.476866666666666,,simk
85,463,condition1,red_mask,"
maska",32110,87,mask,[],23.0,Yes,slovenski,,SI,ekavica,kajkavski,1,-1,,"slovenski, hrvatski",Female,preAndPostAge8,engleski,,Chrome,Windows,1080,1920,33.476866666666666,,simk
86,463,condition1,orange_cake,"
torta",7125,88,cake,[],23.0,Yes,slovenski,,SI,ekavica,kajkavski,1,-1,,"slovenski, hrvatski",Female,preAndPostAge8,engleski,,Chrome,Windows,1080,1920,33.476866666666666,,simk
87,463,condition1,green_vase,"
vaza",2361,89,vase,[],23.0,Yes,slovenski,,SI,ekavica,kajkavski,1,-1,,"slovenski, hrvatski",Female,preAndPostAge8,engleski,,Chrome,Windows,1080,1920,33.476866666666666,,simk
88,463,condition1,yellow_shoe,"
štikla",4149,90,shoe,[],23.0,Yes,slovenski,,SI,ekavica,kajkavski,1,-1,,"slovenski, hrvatski",Female,preAndPostAge8,engleski,,Chrome,Windows,1080,1920,33.476866666666666,,simk
89,463,condition1,red_calculator,"
kalkulator",24858,91,calculator,[],23.0,Yes,slovenski,,SI,ekavica,kajkavski,1,-1,,"slovenski, hrvatski",Female,preAndPostAge8,engleski,,Chrome,Windows,1080,1920,33.476866666666666,,simk
90,463,condition1,red_cap,"
kapa",1936,92,cap,[],23.0,Yes,slovenski,,SI,ekavica,kajkavski,1,-1,,"slovenski, hrvatski",Female,preAndPostAge8,engleski,,Chrome,Windows,1080,1920,33.476866666666666,,simk
91,463,condition1,orange_robot,"
robot",2878,93,robot,[],23.0,Yes,slovenski,,SI,ekavica,kajkavski,1,-1,,"slovenski, hrvatski",Female,preAndPostAge8,engleski,,Chrome,Windows,1080,1920,33.476866666666666,,simk
92,463,condition1,yellow_scarf,"
šal",15163,94,scarf,[],23.0,Yes,slovenski,,SI,ekavica,kajkavski,1,-1,,"slovenski, hrvatski",Female,preAndPostAge8,engleski,,Chrome,Windows,1080,1920,33.476866666666666,,simk
93,463,condition1,purple_drum,"
bubanj",3472,95,drum,[],23.0,Yes,slovenski,,SI,ekavica,kajkavski,1,-1,,"slovenski, hrvatski",Female,preAndPostAge8,engleski,,Chrome,Windows,1080,1920,33.476866666666666,,simk
94,463,condition1,black_sponge,"
spužva",17942,96,sponge,[],23.0,Yes,slovenski,,SI,ekavica,kajkavski,1,-1,,"slovenski, hrvatski",Female,preAndPostAge8,engleski,,Chrome,Windows,1080,1920,33.476866666666666,,simk
95,463,condition1,black_rope,"
nit",20469,97,rope,[],23.0,Yes,slovenski,,SI,ekavica,kajkavski,1,-1,,"slovenski, hrvatski",Female,preAndPostAge8,engleski,,Chrome,Windows,1080,1920,33.476866666666666,,simk
96,463,condition1,purple_piano,"
klavir",3974,98,piano,[],23.0,Yes,slovenski,,SI,ekavica,kajkavski,1,-1,,"slovenski, hrvatski",Female,preAndPostAge8,engleski,,Chrome,Windows,1080,1920,33.476866666666666,,simk
97,463,condition1,black_bowl,"
posuda",4512,99,bowl,[],23.0,Yes,slovenski,,SI,ekavica,kajkavski,1,-1,,"slovenski, hrvatski",Female,preAndPostAge8,engleski,,Chrome,Windows,1080,1920,33.476866666666666,,simk
98,463,condition1,purple_screwdriver,"
odvijač",20101,100,screwdriver,[],23.0,Yes,slovenski,,SI,ekavica,kajkavski,1,-1,,"slovenski, hrvatski",Female,preAndPostAge8,engleski,,Chrome,Windows,1080,1920,33.476866666666666,,simk
99,463,condition1,green_slipper,"
papuča",14560,101,slipper,[],23.0,Yes,slovenski,,SI,ekavica,kajkavski,1,-1,,"slovenski, hrvatski",Female,preAndPostAge8,engleski,,Chrome,Windows,1080,1920,33.476866666666666,,simk
100,463,condition1,white_candle,"
sviječa",18388,102,candle,[],23.0,Yes,slovenski,,SI,ekavica,kajkavski,1,-1,,"slovenski, hrvatski",Female,preAndPostAge8,engleski,,Chrome,Windows,1080,1920,33.476866666666666,,simk
101,463,condition1,blue_mug,"
šalica",31984,103,mug,[],23.0,Yes,slovenski,,SI,ekavica,kajkavski,1,-1,,"slovenski, hrvatski",Female,preAndPostAge8,engleski,,Chrome,Windows,1080,1920,33.476866666666666,,simk
102,463,condition1,white_frame,"
okvir",6970,104,frame,[],23.0,Yes,slovenski,,SI,ekavica,kajkavski,1,-1,,"slovenski, hrvatski",Female,preAndPostAge8,engleski,,Chrome,Windows,1080,1920,33.476866666666666,,simk
103,463,condition1,orange_helicopter,"
helikopter",13278,105,helicopter,[],23.0,Yes,slovenski,,SI,ekavica,kajkavski,1,-1,,"slovenski, hrvatski",Female,preAndPostAge8,engleski,,Chrome,Windows,1080,1920,33.476866666666666,,simk
104,463,condition1,purple_bonbon,"
bombona",4369,106,bonbon,[],23.0,Yes,slovenski,,SI,ekavica,kajkavski,1,-1,,"slovenski, hrvatski",Female,preAndPostAge8,engleski,,Chrome,Windows,1080,1920,33.476866666666666,,simk
105,382,condition1,blue_comb,Cesalj,4782,2,comb,[],34.0,Yes,engleski,,SRB,ekavica,štokavski,4,1,Da,srpsko hrvatski ,Female,preAge8,"francuski, spanski",Ne,Chrome,Linux,846,412,24.4528,,heritage
106,382,condition1,white_candle,Sveca,9896,3,candle,[],34.0,Yes,engleski,,SRB,ekavica,štokavski,4,1,Da,srpsko hrvatski ,Female,preAge8,"francuski, spanski",Ne,Chrome,Linux,846,412,24.4528,,heritage
107,382,condition1,blue_magnifyingglass,Lupa,39010,4,magnifyingglass,[],34.0,Yes,engleski,,SRB,ekavica,štokavski,4,1,Da,srpsko hrvatski ,Female,preAge8,"francuski, spanski",Ne,Chrome,Linux,846,412,24.4528,,heritage
108,382,condition1,purple_shell,Skoljaka,21792,5,shell,[],34.0,Yes,engleski,,SRB,ekavica,štokavski,4,1,Da,srpsko hrvatski ,Female,preAge8,"francuski, spanski",Ne,Chrome,Linux,846,412,24.4528,,heritage
109,382,condition1,orange_piano,Klavir,4513,6,piano,[],34.0,Yes,engleski,,SRB,ekavica,štokavski,4,1,Da,srpsko hrvatski ,Female,preAge8,"francuski, spanski",Ne,Chrome,Linux,846,412,24.4528,,heritage
110,382,condition1,yellow_bed,Krevet,5472,7,bed,[],34.0,Yes,engleski,,SRB,ekavica,štokavski,4,1,Da,srpsko hrvatski ,Female,preAge8,"francuski, spanski",Ne,Chrome,Linux,846,412,24.4528,,heritage
111,382,condition1,orange_sponge,Sundjer,8004,8,sponge,[],34.0,Yes,engleski,,SRB,ekavica,štokavski,4,1,Da,srpsko hrvatski ,Female,preAge8,"francuski, spanski",Ne,Chrome,Linux,846,412,24.4528,,heritage
112,382,condition1,black_sock,Carapa,4176,9,sock,[],34.0,Yes,engleski,,SRB,ekavica,štokavski,4,1,Da,srpsko hrvatski ,Female,preAge8,"francuski, spanski",Ne,Chrome,Linux,846,412,24.4528,,heritage
113,382,condition1,green_binoculars,Dvogled,18444,10,binoculars,[],34.0,Yes,engleski,,SRB,ekavica,štokavski,4,1,Da,srpsko hrvatski ,Female,preAge8,"francuski, spanski",Ne,Chrome,Linux,846,412,24.4528,,heritage
114,382,condition1,black_plate,Tacna,10665,11,plate,[],34.0,Yes,engleski,,SRB,ekavica,štokavski,4,1,Da,srpsko hrvatski ,Female,preAge8,"francuski, spanski",Ne,Chrome,Linux,846,412,24.4528,,heritage
115,382,condition1,green_rope,Konopac,17916,12,rope,[],34.0,Yes,engleski,,SRB,ekavica,štokavski,4,1,Da,srpsko hrvatski ,Female,preAge8,"francuski, spanski",Ne,Chrome,Linux,846,412,24.4528,,heritage
116,382,condition1,white_book,Knjiga,7847,13,book,[],34.0,Yes,engleski,,SRB,ekavica,štokavski,4,1,Da,srpsko hrvatski ,Female,preAge8,"francuski, spanski",Ne,Chrome,Linux,846,412,24.4528,,heritage
117,382,condition1,yellow_phone,Telefon,4236,14,phone,[],34.0,Yes,engleski,,SRB,ekavica,štokavski,4,1,Da,srpsko hrvatski ,Female,preAge8,"francuski, spanski",Ne,Chrome,Linux,846,412,24.4528,,heritage
118,382,condition1,blue_shirt,Majca,5250,15,shirt,[],34.0,Yes,engleski,,SRB,ekavica,štokavski,4,1,Da,srpsko hrvatski ,Female,preAge8,"francuski, spanski",Ne,Chrome,Linux,846,412,24.4528,,heritage
119,382,condition1,green_lock,Pramen,28959,16,lock,[],34.0,Yes,engleski,,SRB,ekavica,štokavski,4,1,Da,srpsko hrvatski ,Female,preAge8,"francuski, spanski",Ne,Chrome,Linux,846,412,24.4528,,heritage
120,382,condition1,yellow_billiardball,Bilijarska lopta,28280,17,billiardball,[],34.0,Yes,engleski,,SRB,ekavica,štokavski,4,1,Da,srpsko hrvatski ,Female,preAge8,"francuski, spanski",Ne,Chrome,Linux,846,412,24.4528,,heritage
121,382,condition1,green_calendar,Kalendar,13684,18,calendar,[],34.0,Yes,engleski,,SRB,ekavica,štokavski,4,1,Da,srpsko hrvatski ,Female,preAge8,"francuski, spanski",Ne,Chrome,Linux,846,412,24.4528,,heritage
122,382,condition1,green_tent,Sator,4280,19,tent,[],34.0,Yes,engleski,,SRB,ekavica,štokavski,4,1,Da,srpsko hrvatski ,Female,preAge8,"francuski, spanski",Ne,Chrome,Linux,846,412,24.4528,,heritage
123,382,condition1,black_helicopter,Hilihopter,7357,20,helicopter,[],34.0,Yes,engleski,,SRB,ekavica,štokavski,4,1,Da,srpsko hrvatski ,Female,preAge8,"francuski, spanski",Ne,Chrome,Linux,846,412,24.4528,,heritage
124,382,condition1,black_vase,Vazna,4951,21,vase,[],34.0,Yes,engleski,,SRB,ekavica,štokavski,4,1,Da,srpsko hrvatski ,Female,preAge8,"francuski, spanski",Ne,Chrome,Linux,846,412,24.4528,,heritage
125,382,condition1,orange_bench,Klupa,4441,22,bench,[],34.0,Yes,engleski,,SRB,ekavica,štokavski,4,1,Da,srpsko hrvatski ,Female,preAge8,"francuski, spanski",Ne,Chrome,Linux,846,412,24.4528,,heritage
126,382,condition1,orange_hammer,Cekic,20503,23,hammer,[],34.0,Yes,engleski,,SRB,ekavica,štokavski,4,1,Da,srpsko hrvatski ,Female,preAge8,"francuski, spanski",Ne,Chrome,Linux,846,412,24.4528,,heritage
127,382,condition1,blue_mouse,Mis,3869,24,mouse,[],34.0,Yes,engleski,,SRB,ekavica,štokavski,4,1,Da,srpsko hrvatski ,Female,preAge8,"francuski, spanski",Ne,Chrome,Linux,846,412,24.4528,,heritage
128,382,condition1,purple_knife,Noz,3892,25,knife,[],34.0,Yes,engleski,,SRB,ekavica,štokavski,4,1,Da,srpsko hrvatski ,Female,preAge8,"francuski, spanski",Ne,Chrome,Linux,846,412,24.4528,,heritage
129,382,condition1,yellow_cap,Kacket,5493,26,cap,[],34.0,Yes,engleski,,SRB,ekavica,štokavski,4,1,Da,srpsko hrvatski ,Female,preAge8,"francuski, spanski",Ne,Chrome,Linux,846,412,24.4528,,heritage
130,382,condition1,orange_necklace,Ogrlica,15188,27,necklace,[],34.0,Yes,engleski,,SRB,ekavica,štokavski,4,1,Da,srpsko hrvatski ,Female,preAge8,"francuski, spanski",Ne,Chrome,Linux,846,412,24.4528,,heritage
131,382,condition1,orange_drum,Bubanj,15332,28,drum,[],34.0,Yes,engleski,,SRB,ekavica,štokavski,4,1,Da,srpsko hrvatski ,Female,preAge8,"francuski, spanski",Ne,Chrome,Linux,846,412,24.4528,,heritage
132,382,condition1,white_bracelet,Ogrlica,15230,29,bracelet,[],34.0,Yes,engleski,,SRB,ekavica,štokavski,4,1,Da,srpsko hrvatski ,Female,preAge8,"francuski, spanski",Ne,Chrome,Linux,846,412,24.4528,,heritage
133,382,condition1,purple_camera,Aparat za slikanje,13469,30,camera,[],34.0,Yes,engleski,,SRB,ekavica,štokavski,4,1,Da,srpsko hrvatski ,Female,preAge8,"francuski, spanski",Ne,Chrome,Linux,846,412,24.4528,,heritage
134,382,condition1,yellow_pencil,Hemiska,6515,31,pencil,[],34.0,Yes,engleski,,SRB,ekavica,štokavski,4,1,Da,srpsko hrvatski ,Female,preAge8,"francuski, spanski",Ne,Chrome,Linux,846,412,24.4528,,heritage
135,382,condition1,black_screwdriver,Odvijac,28385,32,screwdriver,[],34.0,Yes,engleski,,SRB,ekavica,štokavski,4,1,Da,srpsko hrvatski ,Female,preAge8,"francuski, spanski",Ne,Chrome,Linux,846,412,24.4528,,heritage
136,382,condition1,orange_microscope,Mikroskop,19623,33,microscope,[],34.0,Yes,engleski,,SRB,ekavica,štokavski,4,1,Da,srpsko hrvatski ,Female,preAge8,"francuski, spanski",Ne,Chrome,Linux,846,412,24.4528,,heritage
137,382,condition1,white_present,Poklon,5545,34,present,[],34.0,Yes,engleski,,SRB,ekavica,štokavski,4,1,Da,srpsko hrvatski ,Female,preAge8,"francuski, spanski",Ne,Chrome,Linux,846,412,24.4528,,heritage
138,382,condition1,yellow_switch,Prekidac za svetlo,27898,35,switch,[],34.0,Yes,engleski,,SRB,ekavica,štokavski,4,1,Da,srpsko hrvatski ,Female,preAge8,"francuski, spanski",Ne,Chrome,Linux,846,412,24.4528,,heritage
139,382,condition1,red_dustpan,Prasnik,18780,36,dustpan,[],34.0,Yes,engleski,,SRB,ekavica,štokavski,4,1,Da,srpsko hrvatski ,Female,preAge8,"francuski, spanski",Ne,Chrome,Linux,846,412,24.4528,,heritage
140,382,condition1,purple_cake,Torta,4864,37,cake,[],34.0,Yes,engleski,,SRB,ekavica,štokavski,4,1,Da,srpsko hrvatski ,Female,preAge8,"francuski, spanski",Ne,Chrome,Linux,846,412,24.4528,,heritage
141,382,condition1,blue_napkin,Salveta,20458,38,napkin,[],34.0,Yes,engleski,,SRB,ekavica,štokavski,4,1,Da,srpsko hrvatski ,Female,preAge8,"francuski, spanski",Ne,Chrome,Linux,846,412,24.4528,,heritage
142,382,condition1,orange_bandaid,Plaster,8149,39,bandaid,[],34.0,Yes,engleski,,SRB,ekavica,štokavski,4,1,Da,srpsko hrvatski ,Female,preAge8,"francuski, spanski",Ne,Chrome,Linux,846,412,24.4528,,heritage
143,382,condition1,green_umbrella,Kisobran,19853,40,umbrella,[],34.0,Yes,engleski,,SRB,ekavica,štokavski,4,1,Da,srpsko hrvatski ,Female,preAge8,"francuski, spanski",Ne,Chrome,Linux,846,412,24.4528,,heritage
144,382,condition1,purple_tie,Kravata,16906,41,tie,[],34.0,Yes,engleski,,SRB,ekavica,štokavski,4,1,Da,srpsko hrvatski ,Female,preAge8,"francuski, spanski",Ne,Chrome,Linux,846,412,24.4528,,heritage
145,382,condition1,yellow_shoe,Cipela,7729,42,shoe,[],34.0,Yes,engleski,,SRB,ekavica,štokavski,4,1,Da,srpsko hrvatski ,Female,preAge8,"francuski, spanski",Ne,Chrome,Linux,846,412,24.4528,,heritage
146,382,condition1,yellow_rug,Tepih,26528,43,rug,[],34.0,Yes,engleski,,SRB,ekavica,štokavski,4,1,Da,srpsko hrvatski ,Female,preAge8,"francuski, spanski",Ne,Chrome,Linux,846,412,24.4528,,heritage
147,382,condition1,green_ribbon,Masna,13387,44,ribbon,[],34.0,Yes,engleski,,SRB,ekavica,štokavski,4,1,Da,srpsko hrvatski ,Female,preAge8,"francuski, spanski",Ne,Chrome,Linux,846,412,24.4528,,heritage
148,382,condition1,red_bucket,Kofa,4064,45,bucket,[],34.0,Yes,engleski,,SRB,ekavica,štokavski,4,1,Da,srpsko hrvatski ,Female,preAge8,"francuski, spanski",Ne,Chrome,Linux,846,412,24.4528,,heritage
149,382,condition1,black_airplane,Avion,4364,46,airplane,[],34.0,Yes,engleski,,SRB,ekavica,štokavski,4,1,Da,srpsko hrvatski ,Female,preAge8,"francuski, spanski",Ne,Chrome,Linux,846,412,24.4528,,heritage
150,382,condition1,green_duck,Patkica,8811,47,duck,[],34.0,Yes,engleski,,SRB,ekavica,štokavski,4,1,Da,srpsko hrvatski ,Female,preAge8,"francuski, spanski",Ne,Chrome,Linux,846,412,24.4528,,heritage
151,382,condition1,green_dresser,Komoda,15125,48,dresser,[],34.0,Yes,engleski,,SRB,ekavica,štokavski,4,1,Da,srpsko hrvatski ,Female,preAge8,"francuski, spanski",Ne,Chrome,Linux,846,412,24.4528,,heritage
152,382,condition1,red_ring,Prsten,8297,49,ring,[],34.0,Yes,engleski,,SRB,ekavica,štokavski,4,1,Da,srpsko hrvatski ,Female,preAge8,"francuski, spanski",Ne,Chrome,Linux,846,412,24.4528,,heritage
153,382,condition1,purple_whistle,Zvizduk,18825,50,whistle,[],34.0,Yes,engleski,,SRB,ekavica,štokavski,4,1,Da,srpsko hrvatski ,Female,preAge8,"francuski, spanski",Ne,Chrome,Linux,846,412,24.4528,,heritage
154,382,condition1,yellow_yarn,Predje,22528,51,yarn,[],34.0,Yes,engleski,,SRB,ekavica,štokavski,4,1,Da,srpsko hrvatski ,Female,preAge8,"francuski, spanski",Ne,Chrome,Linux,846,412,24.4528,,heritage
155,382,condition1,white_wallet,Novcanik,11269,52,wallet,[],34.0,Yes,engleski,,SRB,ekavica,štokavski,4,1,Da,srpsko hrvatski ,Female,preAge8,"francuski, spanski",Ne,Chrome,Linux,846,412,24.4528,,heritage
156,382,condition1,red_table,Klupa,8297,53,table,[],34.0,Yes,engleski,,SRB,ekavica,štokavski,4,1,Da,srpsko hrvatski ,Female,preAge8,"francuski, spanski",Ne,Chrome,Linux,846,412,24.4528,,heritage
157,382,condition1,green_radio,Radio,6609,54,radio,[],34.0,Yes,engleski,,SRB,ekavica,štokavski,4,1,Da,srpsko hrvatski ,Female,preAge8,"francuski, spanski",Ne,Chrome,Linux,846,412,24.4528,,heritage
158,382,condition1,black_truck,Kamion,5233,55,truck,[],34.0,Yes,engleski,,SRB,ekavica,štokavski,4,1,Da,srpsko hrvatski ,Female,preAge8,"francuski, spanski",Ne,Chrome,Linux,846,412,24.4528,,heritage
159,382,condition1,white_iron,Pegla,5653,56,iron,[],34.0,Yes,engleski,,SRB,ekavica,štokavski,4,1,Da,srpsko hrvatski ,Female,preAge8,"francuski, spanski",Ne,Chrome,Linux,846,412,24.4528,,heritage
160,382,condition1,orange_spoon,Kasika,6209,57,spoon,[],34.0,Yes,engleski,,SRB,ekavica,štokavski,4,1,Da,srpsko hrvatski ,Female,preAge8,"francuski, spanski",Ne,Chrome,Linux,846,412,24.4528,,heritage
161,382,condition1,yellow_balloon,Balon,5363,58,balloon,[],34.0,Yes,engleski,,SRB,ekavica,štokavski,4,1,Da,srpsko hrvatski ,Female,preAge8,"francuski, spanski",Ne,Chrome,Linux,846,412,24.4528,,heritage
162,382,condition1,purple_razor,Brijac,17443,59,razor,[],34.0,Yes,engleski,,SRB,ekavica,štokavski,4,1,Da,srpsko hrvatski ,Female,preAge8,"francuski, spanski",Ne,Chrome,Linux,846,412,24.4528,,heritage
163,382,condition1,blue_ornament,Ornament,7433,60,ornament,[],34.0,Yes,engleski,,SRB,ekavica,štokavski,4,1,Da,srpsko hrvatski ,Female,preAge8,"francuski, spanski",Ne,Chrome,Linux,846,412,24.4528,,heritage
164,382,condition1,green_remote,Upravljac,8670,61,remote,[],34.0,Yes,engleski,,SRB,ekavica,štokavski,4,1,Da,srpsko hrvatski ,Female,preAge8,"francuski, spanski",Ne,Chrome,Linux,846,412,24.4528,,heritage
165,382,condition1,green_bowl,Zdela,31015,62,bowl,[],34.0,Yes,engleski,,SRB,ekavica,štokavski,4,1,Da,srpsko hrvatski ,Female,preAge8,"francuski, spanski",Ne,Chrome,Linux,846,412,24.4528,,heritage
166,382,condition1,red_mask,Maska,6353,63,mask,[],34.0,Yes,engleski,,SRB,ekavica,štokavski,4,1,Da,srpsko hrvatski ,Female,preAge8,"francuski, spanski",Ne,Chrome,Linux,846,412,24.4528,,heritage
167,382,condition1,red_fence,Ograda,4573,64,fence,[],34.0,Yes,engleski,,SRB,ekavica,štokavski,4,1,Da,srpsko hrvatski ,Female,preAge8,"francuski, spanski",Ne,Chrome,Linux,846,412,24.4528,,heritage
168,382,condition1,red_scarf,Sal,14446,65,scarf,[],34.0,Yes,engleski,,SRB,ekavica,štokavski,4,1,Da,srpsko hrvatski ,Female,preAge8,"francuski, spanski",Ne,Chrome,Linux,846,412,24.4528,,heritage
169,382,condition1,red_armchair,Stolica,9313,66,armchair,[],34.0,Yes,engleski,,SRB,ekavica,štokavski,4,1,Da,srpsko hrvatski ,Female,preAge8,"francuski, spanski",Ne,Chrome,Linux,846,412,24.4528,,heritage
170,382,condition1,yellow_dress,Haljina,4902,67,dress,[],34.0,Yes,engleski,,SRB,ekavica,štokavski,4,1,Da,srpsko hrvatski ,Female,preAge8,"francuski, spanski",Ne,Chrome,Linux,846,412,24.4528,,heritage
171,382,condition1,blue_calculator,Racunar,18321,68,calculator,[],34.0,Yes,engleski,,SRB,ekavica,štokavski,4,1,Da,srpsko hrvatski ,Female,preAge8,"francuski, spanski",Ne,Chrome,Linux,846,412,24.4528,,heritage
172,382,condition1,orange_bonbon,Bonbona,4376,69,bonbon,[],34.0,Yes,engleski,,SRB,ekavica,štokavski,4,1,Da,srpsko hrvatski ,Female,preAge8,"francuski, spanski",Ne,Chrome,Linux,846,412,24.4528,,heritage
173,382,condition1,orange_shovel,Lopata,4878,70,shovel,[],34.0,Yes,engleski,,SRB,ekavica,štokavski,4,1,Da,srpsko hrvatski ,Female,preAge8,"francuski, spanski",Ne,Chrome,Linux,846,412,24.4528,,heritage
174,382,condition1,blue_bike,Bicikli,6757,71,bike,[],34.0,Yes,engleski,,SRB,ekavica,štokavski,4,1,Da,srpsko hrvatski ,Female,preAge8,"francuski, spanski",Ne,Chrome,Linux,846,412,24.4528,,heritage
175,382,condition1,blue_binder,Filofaks,11815,72,binder,[],34.0,Yes,engleski,,SRB,ekavica,štokavski,4,1,Da,srpsko hrvatski ,Female,preAge8,"francuski, spanski",Ne,Chrome,Linux,846,412,24.4528,,heritage
176,382,condition1,yellow_door,Vrata,6306,73,door,[],34.0,Yes,engleski,,SRB,ekavica,štokavski,4,1,Da,srpsko hrvatski ,Female,preAge8,"francuski, spanski",Ne,Chrome,Linux,846,412,24.4528,,heritage
177,382,condition1,white_guitar,Gitara,5389,74,guitar,[],34.0,Yes,engleski,,SRB,ekavica,štokavski,4,1,Da,srpsko hrvatski ,Female,preAge8,"francuski, spanski",Ne,Chrome,Linux,846,412,24.4528,,heritage
178,382,condition1,green_box, Kutija,16999,75,box,[],34.0,Yes,engleski,,SRB,ekavica,štokavski,4,1,Da,srpsko hrvatski ,Female,preAge8,"francuski, spanski",Ne,Chrome,Linux,846,412,24.4528,,heritage
179,382,condition1,black_purse,Torba,5044,76,purse,[],34.0,Yes,engleski,,SRB,ekavica,štokavski,4,1,Da,srpsko hrvatski ,Female,preAge8,"francuski, spanski",Ne,Chrome,Linux,846,412,24.4528,,heritage
180,382,condition1,red_chair,Stolica,6859,77,chair,[],34.0,Yes,engleski,,SRB,ekavica,štokavski,4,1,Da,srpsko hrvatski ,Female,preAge8,"francuski, spanski",Ne,Chrome,Linux,846,412,24.4528,,heritage
181,382,condition1,purple_fish,Riba,4527,78,fish,[],34.0,Yes,engleski,,SRB,ekavica,štokavski,4,1,Da,srpsko hrvatski ,Female,preAge8,"francuski, spanski",Ne,Chrome,Linux,846,412,24.4528,,heritage
182,382,condition1,red_clock,Sat,39328,79,clock,[],34.0,Yes,engleski,,SRB,ekavica,štokavski,4,1,Da,srpsko hrvatski ,Female,preAge8,"francuski, spanski",Ne,Chrome,Linux,846,412,24.4528,,heritage
183,382,condition1,yellow_butterfly, Leptir,15731,80,butterfly,[],34.0,Yes,engleski,,SRB,ekavica,štokavski,4,1,Da,srpsko hrvatski ,Female,preAge8,"francuski, spanski",Ne,Chrome,Linux,846,412,24.4528,,heritage
184,382,condition1,yellow_flower,Cvet,9949,81,flower,[],34.0,Yes,engleski,,SRB,ekavica,štokavski,4,1,Da,srpsko hrvatski ,Female,preAge8,"francuski, spanski",Ne,Chrome,Linux,846,412,24.4528,,heritage
185,382,condition1,white_sword,Mac,5323,82,sword,[],34.0,Yes,engleski,,SRB,ekavica,štokavski,4,1,Da,srpsko hrvatski ,Female,preAge8,"francuski, spanski",Ne,Chrome,Linux,846,412,24.4528,,heritage
186,382,condition1,orange_shield,Stit,14236,83,shield,[],34.0,Yes,engleski,,SRB,ekavica,štokavski,4,1,Da,srpsko hrvatski ,Female,preAge8,"francuski, spanski",Ne,Chrome,Linux,846,412,24.4528,,heritage
187,382,condition1,yellow_lamp,Lampa,4672,84,lamp,[],34.0,Yes,engleski,,SRB,ekavica,štokavski,4,1,Da,srpsko hrvatski ,Female,preAge8,"francuski, spanski",Ne,Chrome,Linux,846,412,24.4528,,heritage
188,382,condition1,blue_notebook,Binder,11026,85,notebook,[],34.0,Yes,engleski,,SRB,ekavica,štokavski,4,1,Da,srpsko hrvatski ,Female,preAge8,"francuski, spanski",Ne,Chrome,Linux,846,412,24.4528,,heritage
189,382,condition1,green_ladle,Kutlaca,5942,86,ladle,[],34.0,Yes,engleski,,SRB,ekavica,štokavski,4,1,Da,srpsko hrvatski ,Female,preAge8,"francuski, spanski",Ne,Chrome,Linux,846,412,24.4528,,heritage
190,382,condition1,green_tv,Televizor,6199,87,tv,[],34.0,Yes,engleski,,SRB,ekavica,štokavski,4,1,Da,srpsko hrvatski ,Female,preAge8,"francuski, spanski",Ne,Chrome,Linux,846,412,24.4528,,heritage
191,382,condition1,blue_fryingpan,Tiganj,5806,88,fryingpan,[],34.0,Yes,engleski,,SRB,ekavica,štokavski,4,1,Da,srpsko hrvatski ,Female,preAge8,"francuski, spanski",Ne,Chrome,Linux,846,412,24.4528,,heritage
192,382,condition1,black_lipstick,Karmin,6279,89,lipstick,[],34.0,Yes,engleski,,SRB,ekavica,štokavski,4,1,Da,srpsko hrvatski ,Female,preAge8,"francuski, spanski",Ne,Chrome,Linux,846,412,24.4528,,heritage
193,382,condition1,white_stapler,Spajalica,19014,90,stapler,[],34.0,Yes,engleski,,SRB,ekavica,štokavski,4,1,Da,srpsko hrvatski ,Female,preAge8,"francuski, spanski",Ne,Chrome,Linux,846,412,24.4528,,heritage
194,382,condition1,blue_frame,Ram,4725,91,frame,[],34.0,Yes,engleski,,SRB,ekavica,štokavski,4,1,Da,srpsko hrvatski ,Female,preAge8,"francuski, spanski",Ne,Chrome,Linux,846,412,24.4528,,heritage
195,382,condition1,orange_boot,Cizma,8560,92,boot,[],34.0,Yes,engleski,,SRB,ekavica,štokavski,4,1,Da,srpsko hrvatski ,Female,preAge8,"francuski, spanski",Ne,Chrome,Linux,846,412,24.4528,,heritage
196,382,condition1,blue_cushion,Jastuk,7622,93,cushion,[],34.0,Yes,engleski,,SRB,ekavica,štokavski,4,1,Da,srpsko hrvatski ,Female,preAge8,"francuski, spanski",Ne,Chrome,Linux,846,412,24.4528,,heritage
197,382,condition1,green_fork,Viljuska,5766,94,fork,[],34.0,Yes,engleski,,SRB,ekavica,štokavski,4,1,Da,srpsko hrvatski ,Female,preAge8,"francuski, spanski",Ne,Chrome,Linux,846,412,24.4528,,heritage
198,382,condition1,red_coathanger,Vesalica,18684,95,coathanger,[],34.0,Yes,engleski,,SRB,ekavica,štokavski,4,1,Da,srpsko hrvatski ,Female,preAge8,"francuski, spanski",Ne,Chrome,Linux,846,412,24.4528,,heritage
199,382,condition1,purple_slipper,Papuca,5219,96,slipper,[],34.0,Yes,engleski,,SRB,ekavica,štokavski,4,1,Da,srpsko hrvatski ,Female,preAge8,"francuski, spanski",Ne,Chrome,Linux,846,412,24.4528,,heritage
200,382,condition1,black_basket,Ceger,68952,97,basket,[],34.0,Yes,engleski,,SRB,ekavica,štokavski,4,1,Da,srpsko hrvatski ,Female,preAge8,"francuski, spanski",Ne,Chrome,Linux,846,412,24.4528,,heritage
201,382,condition1,orange_glove,Rukavica,19042,98,glove,[],34.0,Yes,engleski,,SRB,ekavica,štokavski,4,1,Da,srpsko hrvatski ,Female,preAge8,"francuski, spanski",Ne,Chrome,Linux,846,412,24.4528,,heritage
202,382,condition1,red_key,Kljuc,4949,99,key,[],34.0,Yes,engleski,,SRB,ekavica,štokavski,4,1,Da,srpsko hrvatski ,Female,preAge8,"francuski, spanski",Ne,Chrome,Linux,846,412,24.4528,,heritage
203,382,condition1,green_luggage,Kofer,36305,100,luggage,[],34.0,Yes,engleski,,SRB,ekavica,štokavski,4,1,Da,srpsko hrvatski ,Female,preAge8,"francuski, spanski",Ne,Chrome,Linux,846,412,24.4528,,heritage
204,382,condition1,blue_crown,Kruna,5121,101,crown,[],34.0,Yes,engleski,,SRB,ekavica,štokavski,4,1,Da,srpsko hrvatski ,Female,preAge8,"francuski, spanski",Ne,Chrome,Linux,846,412,24.4528,,heritage
205,382,condition1,green_robot,Robot,4890,102,robot,[],34.0,Yes,engleski,,SRB,ekavica,štokavski,4,1,Da,srpsko hrvatski ,Female,preAge8,"francuski, spanski",Ne,Chrome,Linux,846,412,24.4528,,heritage
206,382,condition1,yellow_mug,Casa,12753,103,mug,[],34.0,Yes,engleski,,SRB,ekavica,štokavski,4,1,Da,srpsko hrvatski ,Female,preAge8,"francuski, spanski",Ne,Chrome,Linux,846,412,24.4528,,heritage
207,382,condition1,red_ruler,Metar,4461,104,ruler,[],34.0,Yes,engleski,,SRB,ekavica,štokavski,4,1,Da,srpsko hrvatski ,Female,preAge8,"francuski, spanski",Ne,Chrome,Linux,846,412,24.4528,,heritage
208,382,condition1,green_die,Kocke,14253,105,die,[],34.0,Yes,engleski,,SRB,ekavica,štokavski,4,1,Da,srpsko hrvatski ,Female,preAge8,"francuski, spanski",Ne,Chrome,Linux,846,412,24.4528,,heritage
209,382,condition1,red_belt,Kajis,5437,106,belt,[],34.0,Yes,engleski,,SRB,ekavica,štokavski,4,1,Da,srpsko hrvatski ,Female,preAge8,"francuski, spanski",Ne,Chrome,Linux,846,412,24.4528,,heritage
210,340,condition1,yellow_bed,postelja,15716,2,bed,[],21.0,Yes,slovenščina,/,SI,ekavica,kajkavski,0,1,da,slovenščina,Male,no,"angleščina, hrvaščina, nemščina",Ne,Chrome,Windows,1080,1920,11.860083333333334,,simk
211,340,condition1,green_die,kocka,3827,3,die,[],21.0,Yes,slovenščina,/,SI,ekavica,kajkavski,0,1,da,slovenščina,Male,no,"angleščina, hrvaščina, nemščina",Ne,Chrome,Windows,1080,1920,11.860083333333334,,simk
212,340,condition1,red_calculator,kalkulator,4926,4,calculator,[],21.0,Yes,slovenščina,/,SI,ekavica,kajkavski,0,1,da,slovenščina,Male,no,"angleščina, hrvaščina, nemščina",Ne,Chrome,Windows,1080,1920,11.860083333333334,,simk
213,340,condition1,orange_umbrella,marela,4534,5,umbrella,[],21.0,Yes,slovenščina,/,SI,ekavica,kajkavski,0,1,da,slovenščina,Male,no,"angleščina, hrvaščina, nemščina",Ne,Chrome,Windows,1080,1920,11.860083333333334,,simk
214,340,condition1,white_book,knjiga,4250,6,book,[],21.0,Yes,slovenščina,/,SI,ekavica,kajkavski,0,1,da,slovenščina,Male,no,"angleščina, hrvaščina, nemščina",Ne,Chrome,Windows,1080,1920,11.860083333333334,,simk
215,340,condition1,purple_spoon,žlica,5313,7,spoon,[],21.0,Yes,slovenščina,/,SI,ekavica,kajkavski,0,1,da,slovenščina,Male,no,"angleščina, hrvaščina, nemščina",Ne,Chrome,Windows,1080,1920,11.860083333333334,,simk
216,340,condition1,green_robot,robot,1922,8,robot,[],21.0,Yes,slovenščina,/,SI,ekavica,kajkavski,0,1,da,slovenščina,Male,no,"angleščina, hrvaščina, nemščina",Ne,Chrome,Windows,1080,1920,11.860083333333334,,simk
217,340,condition1,yellow_scarf,šal,3972,9,scarf,[],21.0,Yes,slovenščina,/,SI,ekavica,kajkavski,0,1,da,slovenščina,Male,no,"angleščina, hrvaščina, nemščina",Ne,Chrome,Windows,1080,1920,11.860083333333334,,simk
218,340,condition1,green_remote,pilot,2801,10,remote,[],21.0,Yes,slovenščina,/,SI,ekavica,kajkavski,0,1,da,slovenščina,Male,no,"angleščina, hrvaščina, nemščina",Ne,Chrome,Windows,1080,1920,11.860083333333334,,simk
219,340,condition1,green_whistle,fučka,8162,11,whistle,[],21.0,Yes,slovenščina,/,SI,ekavica,kajkavski,0,1,da,slovenščina,Male,no,"angleščina, hrvaščina, nemščina",Ne,Chrome,Windows,1080,1920,11.860083333333334,,simk
220,340,condition1,red_butterfly,metulj,5416,12,butterfly,[],21.0,Yes,slovenščina,/,SI,ekavica,kajkavski,0,1,da,slovenščina,Male,no,"angleščina, hrvaščina, nemščina",Ne,Chrome,Windows,1080,1920,11.860083333333334,,simk
221,340,condition1,yellow_stapler,sponkač,5077,13,stapler,[],21.0,Yes,slovenščina,/,SI,ekavica,kajkavski,0,1,da,slovenščina,Male,no,"angleščina, hrvaščina, nemščina",Ne,Chrome,Windows,1080,1920,11.860083333333334,,simk
222,340,condition1,black_plate,taler,10636,14,plate,[],21.0,Yes,slovenščina,/,SI,ekavica,kajkavski,0,1,da,slovenščina,Male,no,"angleščina, hrvaščina, nemščina",Ne,Chrome,Windows,1080,1920,11.860083333333334,,simk
223,340,condition1,purple_airplane,avion,6444,15,airplane,[],21.0,Yes,slovenščina,/,SI,ekavica,kajkavski,0,1,da,slovenščina,Male,no,"angleščina, hrvaščina, nemščina",Ne,Chrome,Windows,1080,1920,11.860083333333334,,simk
224,340,condition1,purple_sock,zoklin,10152,16,sock,[],21.0,Yes,slovenščina,/,SI,ekavica,kajkavski,0,1,da,slovenščina,Male,no,"angleščina, hrvaščina, nemščina",Ne,Chrome,Windows,1080,1920,11.860083333333334,,simk
225,340,condition1,orange_bonbon,bonbon,4236,17,bonbon,[],21.0,Yes,slovenščina,/,SI,ekavica,kajkavski,0,1,da,slovenščina,Male,no,"angleščina, hrvaščina, nemščina",Ne,Chrome,Windows,1080,1920,11.860083333333334,,simk
226,340,condition1,white_belt,pas,2933,18,belt,[],21.0,Yes,slovenščina,/,SI,ekavica,kajkavski,0,1,da,slovenščina,Male,no,"angleščina, hrvaščina, nemščina",Ne,Chrome,Windows,1080,1920,11.860083333333334,,simk
227,340,condition1,green_necklace,nakit,9179,19,necklace,[],21.0,Yes,slovenščina,/,SI,ekavica,kajkavski,0,1,da,slovenščina,Male,no,"angleščina, hrvaščina, nemščina",Ne,Chrome,Windows,1080,1920,11.860083333333334,,simk
228,340,condition1,blue_phone,telefon,3674,20,phone,[],21.0,Yes,slovenščina,/,SI,ekavica,kajkavski,0,1,da,slovenščina,Male,no,"angleščina, hrvaščina, nemščina",Ne,Chrome,Windows,1080,1920,11.860083333333334,,simk
229,340,condition1,blue_mouse,miš,2297,21,mouse,[],21.0,Yes,slovenščina,/,SI,ekavica,kajkavski,0,1,da,slovenščina,Male,no,"angleščina, hrvaščina, nemščina",Ne,Chrome,Windows,1080,1920,11.860083333333334,,simk
230,340,condition1,orange_binoculars,daljnogled,5846,22,binoculars,[],21.0,Yes,slovenščina,/,SI,ekavica,kajkavski,0,1,da,slovenščina,Male,no,"angleščina, hrvaščina, nemščina",Ne,Chrome,Windows,1080,1920,11.860083333333334,,simk
231,340,condition1,red_rug,preproga,10217,23,rug,[],21.0,Yes,slovenščina,/,SI,ekavica,kajkavski,0,1,da,slovenščina,Male,no,"angleščina, hrvaščina, nemščina",Ne,Chrome,Windows,1080,1920,11.860083333333334,,simk
232,340,condition1,yellow_bucket,vejdra,3809,24,bucket,[],21.0,Yes,slovenščina,/,SI,ekavica,kajkavski,0,1,da,slovenščina,Male,no,"angleščina, hrvaščina, nemščina",Ne,Chrome,Windows,1080,1920,11.860083333333334,,simk
233,340,condition1,green_luggage,potovalka,4009,25,luggage,[],21.0,Yes,slovenščina,/,SI,ekavica,kajkavski,0,1,da,slovenščina,Male,no,"angleščina, hrvaščina, nemščina",Ne,Chrome,Windows,1080,1920,11.860083333333334,,simk
234,340,condition1,orange_box,karton,7110,26,box,[],21.0,Yes,slovenščina,/,SI,ekavica,kajkavski,0,1,da,slovenščina,Male,no,"angleščina, hrvaščina, nemščina",Ne,Chrome,Windows,1080,1920,11.860083333333334,,simk
235,340,condition1,green_tv,televizija,3782,27,tv,[],21.0,Yes,slovenščina,/,SI,ekavica,kajkavski,0,1,da,slovenščina,Male,no,"angleščina, hrvaščina, nemščina",Ne,Chrome,Windows,1080,1920,11.860083333333334,,simk
236,340,condition1,purple_microscope,mikroskop,3526,28,microscope,[],21.0,Yes,slovenščina,/,SI,ekavica,kajkavski,0,1,da,slovenščina,Male,no,"angleščina, hrvaščina, nemščina",Ne,Chrome,Windows,1080,1920,11.860083333333334,,simk
237,340,condition1,red_door,vrata,2737,29,door,[],21.0,Yes,slovenščina,/,SI,ekavica,kajkavski,0,1,da,slovenščina,Male,no,"angleščina, hrvaščina, nemščina",Ne,Chrome,Windows,1080,1920,11.860083333333334,,simk
238,340,condition1,white_dress,obleka,7238,30,dress,[],21.0,Yes,slovenščina,/,SI,ekavica,kajkavski,0,1,da,slovenščina,Male,no,"angleščina, hrvaščina, nemščina",Ne,Chrome,Windows,1080,1920,11.860083333333334,,simk
239,340,condition1,white_sword,sablja,6066,31,sword,[],21.0,Yes,slovenščina,/,SI,ekavica,kajkavski,0,1,da,slovenščina,Male,no,"angleščina, hrvaščina, nemščina",Ne,Chrome,Windows,1080,1920,11.860083333333334,,simk
240,340,condition1,purple_razor,britvica,2823,32,razor,[],21.0,Yes,slovenščina,/,SI,ekavica,kajkavski,0,1,da,slovenščina,Male,no,"angleščina, hrvaščina, nemščina",Ne,Chrome,Windows,1080,1920,11.860083333333334,,simk
241,340,condition1,yellow_fence,ograja,3662,33,fence,[],21.0,Yes,slovenščina,/,SI,ekavica,kajkavski,0,1,da,slovenščina,Male,no,"angleščina, hrvaščina, nemščina",Ne,Chrome,Windows,1080,1920,11.860083333333334,,simk
242,340,condition1,blue_ruler,merilnik penisa,8542,34,ruler,[],21.0,Yes,slovenščina,/,SI,ekavica,kajkavski,0,1,da,slovenščina,Male,no,"angleščina, hrvaščina, nemščina",Ne,Chrome,Windows,1080,1920,11.860083333333334,,simk
243,340,condition1,red_key,ključ,3801,35,key,[],21.0,Yes,slovenščina,/,SI,ekavica,kajkavski,0,1,da,slovenščina,Male,no,"angleščina, hrvaščina, nemščina",Ne,Chrome,Windows,1080,1920,11.860083333333334,,simk
244,340,condition1,yellow_bike,biciklin,4046,36,bike,[],21.0,Yes,slovenščina,/,SI,ekavica,kajkavski,0,1,da,slovenščina,Male,no,"angleščina, hrvaščina, nemščina",Ne,Chrome,Windows,1080,1920,11.860083333333334,,simk
245,340,condition1,yellow_iron,žuta?,7899,37,iron,[],21.0,Yes,slovenščina,/,SI,ekavica,kajkavski,0,1,da,slovenščina,Male,no,"angleščina, hrvaščina, nemščina",Ne,Chrome,Windows,1080,1920,11.860083333333334,,simk
246,340,condition1,red_coathanger,obešalnik,7143,38,coathanger,[],21.0,Yes,slovenščina,/,SI,ekavica,kajkavski,0,1,da,slovenščina,Male,no,"angleščina, hrvaščina, nemščina",Ne,Chrome,Windows,1080,1920,11.860083333333334,,simk
247,340,condition1,red_candle,"
sveča",3521,39,candle,[],21.0,Yes,slovenščina,/,SI,ekavica,kajkavski,0,1,da,slovenščina,Male,no,"angleščina, hrvaščina, nemščina",Ne,Chrome,Windows,1080,1920,11.860083333333334,,simk
248,340,condition1,orange_helicopter,parakopter,4779,40,helicopter,[],21.0,Yes,slovenščina,/,SI,ekavica,kajkavski,0,1,da,slovenščina,Male,no,"angleščina, hrvaščina, nemščina",Ne,Chrome,Windows,1080,1920,11.860083333333334,,simk
249,340,condition1,orange_shovel,lopata,9956,41,shovel,[],21.0,Yes,slovenščina,/,SI,ekavica,kajkavski,0,1,da,slovenščina,Male,no,"angleščina, hrvaščina, nemščina",Ne,Chrome,Windows,1080,1920,11.860083333333334,,simk
250,340,condition1,orange_glove,rokavica,2441,42,glove,[],21.0,Yes,slovenščina,/,SI,ekavica,kajkavski,0,1,da,slovenščina,Male,no,"angleščina, hrvaščina, nemščina",Ne,Chrome,Windows,1080,1920,11.860083333333334,,simk
251,340,condition1,black_slipper,papuča,3058,43,slipper,[],21.0,Yes,slovenščina,/,SI,ekavica,kajkavski,0,1,da,slovenščina,Male,no,"angleščina, hrvaščina, nemščina",Ne,Chrome,Windows,1080,1920,11.860083333333334,,simk
252,340,condition1,white_fryingpan,ponva,15394,44,fryingpan,[],21.0,Yes,slovenščina,/,SI,ekavica,kajkavski,0,1,da,slovenščina,Male,no,"angleščina, hrvaščina, nemščina",Ne,Chrome,Windows,1080,1920,11.860083333333334,,simk
253,340,condition1,purple_ladle,šleferka oz zajemalka,13226,45,ladle,[],21.0,Yes,slovenščina,/,SI,ekavica,kajkavski,0,1,da,slovenščina,Male,no,"angleščina, hrvaščina, nemščina",Ne,Chrome,Windows,1080,1920,11.860083333333334,,simk
254,340,condition1,blue_dustpan,neznam,11368,46,dustpan,[],21.0,Yes,slovenščina,/,SI,ekavica,kajkavski,0,1,da,slovenščina,Male,no,"angleščina, hrvaščina, nemščina",Ne,Chrome,Windows,1080,1920,11.860083333333334,,simk
255,340,condition1,red_clock,ura,2368,47,clock,[],21.0,Yes,slovenščina,/,SI,ekavica,kajkavski,0,1,da,slovenščina,Male,no,"angleščina, hrvaščina, nemščina",Ne,Chrome,Windows,1080,1920,11.860083333333334,,simk
256,340,condition1,yellow_cushion,pojšter,53164,48,cushion,[],21.0,Yes,slovenščina,/,SI,ekavica,kajkavski,0,1,da,slovenščina,Male,no,"angleščina, hrvaščina, nemščina",Ne,Chrome,Windows,1080,1920,11.860083333333334,,simk
257,340,condition1,purple_lipstick,šminka,8719,49,lipstick,[],21.0,Yes,slovenščina,/,SI,ekavica,kajkavski,0,1,da,slovenščina,Male,no,"angleščina, hrvaščina, nemščina",Ne,Chrome,Windows,1080,1920,11.860083333333334,,simk
258,340,condition1,green_purse,torba,2476,50,purse,[],21.0,Yes,slovenščina,/,SI,ekavica,kajkavski,0,1,da,slovenščina,Male,no,"angleščina, hrvaščina, nemščina",Ne,Chrome,Windows,1080,1920,11.860083333333334,,simk
259,340,condition1,orange_calendar,kolendar,2326,51,calendar,[],21.0,Yes,slovenščina,/,SI,ekavica,kajkavski,0,1,da,slovenščina,Male,no,"angleščina, hrvaščina, nemščina",Ne,Chrome,Windows,1080,1920,11.860083333333334,,simk
260,340,condition1,orange_boot,cipela,2225,52,boot,[],21.0,Yes,slovenščina,/,SI,ekavica,kajkavski,0,1,da,slovenščina,Male,no,"angleščina, hrvaščina, nemščina",Ne,Chrome,Windows,1080,1920,11.860083333333334,,simk
261,340,condition1,red_cap,kapa,1377,53,cap,[],21.0,Yes,slovenščina,/,SI,ekavica,kajkavski,0,1,da,slovenščina,Male,no,"angleščina, hrvaščina, nemščina",Ne,Chrome,Windows,1080,1920,11.860083333333334,,simk
262,340,condition1,black_knife,nož,3245,54,knife,[],21.0,Yes,slovenščina,/,SI,ekavica,kajkavski,0,1,da,slovenščina,Male,no,"angleščina, hrvaščina, nemščina",Ne,Chrome,Windows,1080,1920,11.860083333333334,,simk
263,340,condition1,red_magnifyingglass,lupa,7630,55,magnifyingglass,[],21.0,Yes,slovenščina,/,SI,ekavica,kajkavski,0,1,da,slovenščina,Male,no,"angleščina, hrvaščina, nemščina",Ne,Chrome,Windows,1080,1920,11.860083333333334,,simk
264,340,condition1,purple_bowl,krožnik,41515,56,bowl,[],21.0,Yes,slovenščina,/,SI,ekavica,kajkavski,0,1,da,slovenščina,Male,no,"angleščina, hrvaščina, nemščina",Ne,Chrome,Windows,1080,1920,11.860083333333334,,simk
265,340,condition1,green_basket,kurpec,7012,57,basket,[],21.0,Yes,slovenščina,/,SI,ekavica,kajkavski,0,1,da,slovenščina,Male,no,"angleščina, hrvaščina, nemščina",Ne,Chrome,Windows,1080,1920,11.860083333333334,,simk
266,340,condition1,red_mask,maska,3424,58,mask,[],21.0,Yes,slovenščina,/,SI,ekavica,kajkavski,0,1,da,slovenščina,Male,no,"angleščina, hrvaščina, nemščina",Ne,Chrome,Windows,1080,1920,11.860083333333334,,simk
267,340,condition1,black_hammer,hamer,3289,59,hammer,[],21.0,Yes,slovenščina,/,SI,ekavica,kajkavski,0,1,da,slovenščina,Male,no,"angleščina, hrvaščina, nemščina",Ne,Chrome,Windows,1080,1920,11.860083333333334,,simk
268,340,condition1,green_fork,vilica,2674,60,fork,[],21.0,Yes,slovenščina,/,SI,ekavica,kajkavski,0,1,da,slovenščina,Male,no,"angleščina, hrvaščina, nemščina",Ne,Chrome,Windows,1080,1920,11.860083333333334,,simk
269,340,condition1,yellow_crown,krovna,6825,61,crown,[],21.0,Yes,slovenščina,/,SI,ekavica,kajkavski,0,1,da,slovenščina,Male,no,"angleščina, hrvaščina, nemščina",Ne,Chrome,Windows,1080,1920,11.860083333333334,,simk
270,340,condition1,purple_bandaid,bandaža,5370,62,bandaid,[],21.0,Yes,slovenščina,/,SI,ekavica,kajkavski,0,1,da,slovenščina,Male,no,"angleščina, hrvaščina, nemščina",Ne,Chrome,Windows,1080,1920,11.860083333333334,,simk
271,340,condition1,black_lock,ključavnica,10166,63,lock,[],21.0,Yes,slovenščina,/,SI,ekavica,kajkavski,0,1,da,slovenščina,Male,no,"angleščina, hrvaščina, nemščina",Ne,Chrome,Windows,1080,1920,11.860083333333334,,simk
272,340,condition1,purple_piano,klavir,2196,64,piano,[],21.0,Yes,slovenščina,/,SI,ekavica,kajkavski,0,1,da,slovenščina,Male,no,"angleščina, hrvaščina, nemščina",Ne,Chrome,Windows,1080,1920,11.860083333333334,,simk
273,340,condition1,white_notebook,sponka,4768,65,notebook,[],21.0,Yes,slovenščina,/,SI,ekavica,kajkavski,0,1,da,slovenščina,Male,no,"angleščina, hrvaščina, nemščina",Ne,Chrome,Windows,1080,1920,11.860083333333334,,simk
274,340,condition1,blue_armchair,stol,15256,66,armchair,[],21.0,Yes,slovenščina,/,SI,ekavica,kajkavski,0,1,da,slovenščina,Male,no,"angleščina, hrvaščina, nemščina",Ne,Chrome,Windows,1080,1920,11.860083333333334,,simk
275,340,condition1,white_ring,prstan,3254,67,ring,[],21.0,Yes,slovenščina,/,SI,ekavica,kajkavski,0,1,da,slovenščina,Male,no,"angleščina, hrvaščina, nemščina",Ne,Chrome,Windows,1080,1920,11.860083333333334,,simk
276,340,condition1,yellow_shirt,kratka majica,5497,68,shirt,[],21.0,Yes,slovenščina,/,SI,ekavica,kajkavski,0,1,da,slovenščina,Male,no,"angleščina, hrvaščina, nemščina",Ne,Chrome,Windows,1080,1920,11.860083333333334,,simk
277,340,condition1,white_balloon,balon,1585,69,balloon,[],21.0,Yes,slovenščina,/,SI,ekavica,kajkavski,0,1,da,slovenščina,Male,no,"angleščina, hrvaščina, nemščina",Ne,Chrome,Windows,1080,1920,11.860083333333334,,simk
278,340,condition1,yellow_switch,vstikalo,5657,70,switch,[],21.0,Yes,slovenščina,/,SI,ekavica,kajkavski,0,1,da,slovenščina,Male,no,"angleščina, hrvaščina, nemščina",Ne,Chrome,Windows,1080,1920,11.860083333333334,,simk
279,340,condition1,white_pencil,svinčnik,7885,71,pencil,[],21.0,Yes,slovenščina,/,SI,ekavica,kajkavski,0,1,da,slovenščina,Male,no,"angleščina, hrvaščina, nemščina",Ne,Chrome,Windows,1080,1920,11.860083333333334,,simk
280,340,condition1,red_napkin,papir,2040,72,napkin,[],21.0,Yes,slovenščina,/,SI,ekavica,kajkavski,0,1,da,slovenščina,Male,no,"angleščina, hrvaščina, nemščina",Ne,Chrome,Windows,1080,1920,11.860083333333334,,simk
281,340,condition1,orange_fish,riba,1837,73,fish,[],21.0,Yes,slovenščina,/,SI,ekavica,kajkavski,0,1,da,slovenščina,Male,no,"angleščina, hrvaščina, nemščina",Ne,Chrome,Windows,1080,1920,11.860083333333334,,simk
282,340,condition1,green_radio,radio,7579,74,radio,[],21.0,Yes,slovenščina,/,SI,ekavica,kajkavski,0,1,da,slovenščina,Male,no,"angleščina, hrvaščina, nemščina",Ne,Chrome,Windows,1080,1920,11.860083333333334,,simk
283,340,condition1,red_billiardball,pet,5631,75,billiardball,[],21.0,Yes,slovenščina,/,SI,ekavica,kajkavski,0,1,da,slovenščina,Male,no,"angleščina, hrvaščina, nemščina",Ne,Chrome,Windows,1080,1920,11.860083333333334,,simk
284,340,condition1,blue_frame,slika,4585,76,frame,[],21.0,Yes,slovenščina,/,SI,ekavica,kajkavski,0,1,da,slovenščina,Male,no,"angleščina, hrvaščina, nemščina",Ne,Chrome,Windows,1080,1920,11.860083333333334,,simk
285,340,condition1,yellow_ornament,okraski,15359,77,ornament,[],21.0,Yes,slovenščina,/,SI,ekavica,kajkavski,0,1,da,slovenščina,Male,no,"angleščina, hrvaščina, nemščina",Ne,Chrome,Windows,1080,1920,11.860083333333334,,simk
286,340,condition1,black_shell,školjka,5990,78,shell,[],21.0,Yes,slovenščina,/,SI,ekavica,kajkavski,0,1,da,slovenščina,Male,no,"angleščina, hrvaščina, nemščina",Ne,Chrome,Windows,1080,1920,11.860083333333334,,simk
287,340,condition1,black_vase,vaza,2220,79,vase,[],21.0,Yes,slovenščina,/,SI,ekavica,kajkavski,0,1,da,slovenščina,Male,no,"angleščina, hrvaščina, nemščina",Ne,Chrome,Windows,1080,1920,11.860083333333334,,simk
288,340,condition1,red_present,darilo,2462,80,present,[],21.0,Yes,slovenščina,/,SI,ekavica,kajkavski,0,1,da,slovenščina,Male,no,"angleščina, hrvaščina, nemščina",Ne,Chrome,Windows,1080,1920,11.860083333333334,,simk
289,340,condition1,yellow_lamp,luč,3621,81,lamp,[],21.0,Yes,slovenščina,/,SI,ekavica,kajkavski,0,1,da,slovenščina,Male,no,"angleščina, hrvaščina, nemščina",Ne,Chrome,Windows,1080,1920,11.860083333333334,,simk
290,340,condition1,green_dresser,omara,2433,82,dresser,[],21.0,Yes,slovenščina,/,SI,ekavica,kajkavski,0,1,da,slovenščina,Male,no,"angleščina, hrvaščina, nemščina",Ne,Chrome,Windows,1080,1920,11.860083333333334,,simk
291,340,condition1,white_table,miza,4062,83,table,[],21.0,Yes,slovenščina,/,SI,ekavica,kajkavski,0,1,da,slovenščina,Male,no,"angleščina, hrvaščina, nemščina",Ne,Chrome,Windows,1080,1920,11.860083333333334,,simk
292,340,condition1,purple_cake,torta,1848,84,cake,[],21.0,Yes,slovenščina,/,SI,ekavica,kajkavski,0,1,da,slovenščina,Male,no,"angleščina, hrvaščina, nemščina",Ne,Chrome,Windows,1080,1920,11.860083333333334,,simk
293,340,condition1,green_camera,fotoaparat,3345,85,camera,[],21.0,Yes,slovenščina,/,SI,ekavica,kajkavski,0,1,da,slovenščina,Male,no,"angleščina, hrvaščina, nemščina",Ne,Chrome,Windows,1080,1920,11.860083333333334,,simk
294,340,condition1,green_truck,tovornjak,4021,86,truck,[],21.0,Yes,slovenščina,/,SI,ekavica,kajkavski,0,1,da,slovenščina,Male,no,"angleščina, hrvaščina, nemščina",Ne,Chrome,Windows,1080,1920,11.860083333333334,,simk
295,340,condition1,black_tent,šotor,11105,87,tent,[],21.0,Yes,slovenščina,/,SI,ekavica,kajkavski,0,1,da,slovenščina,Male,no,"angleščina, hrvaščina, nemščina",Ne,Chrome,Windows,1080,1920,11.860083333333334,,simk
296,340,condition1,red_guitar,kitara,2557,88,guitar,[],21.0,Yes,slovenščina,/,SI,ekavica,kajkavski,0,1,da,slovenščina,Male,no,"angleščina, hrvaščina, nemščina",Ne,Chrome,Windows,1080,1920,11.860083333333334,,simk
297,340,condition1,green_screwdriver,zvijač,3418,89,screwdriver,[],21.0,Yes,slovenščina,/,SI,ekavica,kajkavski,0,1,da,slovenščina,Male,no,"angleščina, hrvaščina, nemščina",Ne,Chrome,Windows,1080,1920,11.860083333333334,,simk
298,340,condition1,blue_bracelet,ogrlica,4574,90,bracelet,[],21.0,Yes,slovenščina,/,SI,ekavica,kajkavski,0,1,da,slovenščina,Male,no,"angleščina, hrvaščina, nemščina",Ne,Chrome,Windows,1080,1920,11.860083333333334,,simk
299,340,condition1,purple_duck,gumijasta račka,24239,91,duck,[],21.0,Yes,slovenščina,/,SI,ekavica,kajkavski,0,1,da,slovenščina,Male,no,"angleščina, hrvaščina, nemščina",Ne,Chrome,Windows,1080,1920,11.860083333333334,,simk
300,340,condition1,orange_tie,kravata,4522,92,tie,[],21.0,Yes,slovenščina,/,SI,ekavica,kajkavski,0,1,da,slovenščina,Male,no,"angleščina, hrvaščina, nemščina",Ne,Chrome,Windows,1080,1920,11.860083333333334,,simk
301,340,condition1,purple_ribbon,okrasek,10092,93,ribbon,[],21.0,Yes,slovenščina,/,SI,ekavica,kajkavski,0,1,da,slovenščina,Male,no,"angleščina, hrvaščina, nemščina",Ne,Chrome,Windows,1080,1920,11.860083333333334,,simk
302,340,condition1,black_rope,vrvica,3280,94,rope,[],21.0,Yes,slovenščina,/,SI,ekavica,kajkavski,0,1,da,slovenščina,Male,no,"angleščina, hrvaščina, nemščina",Ne,Chrome,Windows,1080,1920,11.860083333333334,,simk
303,340,condition1,green_shield,ščit,8723,95,shield,[],21.0,Yes,slovenščina,/,SI,ekavica,kajkavski,0,1,da,slovenščina,Male,no,"angleščina, hrvaščina, nemščina",Ne,Chrome,Windows,1080,1920,11.860083333333334,,simk
304,340,condition1,blue_shoe,cipela,1824,96,shoe,[],21.0,Yes,slovenščina,/,SI,ekavica,kajkavski,0,1,da,slovenščina,Male,no,"angleščina, hrvaščina, nemščina",Ne,Chrome,Windows,1080,1920,11.860083333333334,,simk
305,340,condition1,yellow_mug,kupica,11172,97,mug,[],21.0,Yes,slovenščina,/,SI,ekavica,kajkavski,0,1,da,slovenščina,Male,no,"angleščina, hrvaščina, nemščina",Ne,Chrome,Windows,1080,1920,11.860083333333334,,simk
306,340,condition1,blue_flower,roža,3369,98,flower,[],21.0,Yes,slovenščina,/,SI,ekavica,kajkavski,0,1,da,slovenščina,Male,no,"angleščina, hrvaščina, nemščina",Ne,Chrome,Windows,1080,1920,11.860083333333334,,simk
307,340,condition1,purple_sponge,spužva,4206,99,sponge,[],21.0,Yes,slovenščina,/,SI,ekavica,kajkavski,0,1,da,slovenščina,Male,no,"angleščina, hrvaščina, nemščina",Ne,Chrome,Windows,1080,1920,11.860083333333334,,simk
308,340,condition1,green_drum,bobni,3360,100,drum,[],21.0,Yes,slovenščina,/,SI,ekavica,kajkavski,0,1,da,slovenščina,Male,no,"angleščina, hrvaščina, nemščina",Ne,Chrome,Windows,1080,1920,11.860083333333334,,simk
309,340,condition1,blue_comb,vzglavnik,3970,101,comb,[],21.0,Yes,slovenščina,/,SI,ekavica,kajkavski,0,1,da,slovenščina,Male,no,"angleščina, hrvaščina, nemščina",Ne,Chrome,Windows,1080,1920,11.860083333333334,,simk
310,340,condition1,orange_bench,klopca,4485,102,bench,[],21.0,Yes,slovenščina,/,SI,ekavica,kajkavski,0,1,da,slovenščina,Male,no,"angleščina, hrvaščina, nemščina",Ne,Chrome,Windows,1080,1920,11.860083333333334,,simk
311,340,condition1,blue_chair,stol,2705,103,chair,[],21.0,Yes,slovenščina,/,SI,ekavica,kajkavski,0,1,da,slovenščina,Male,no,"angleščina, hrvaščina, nemščina",Ne,Chrome,Windows,1080,1920,11.860083333333334,,simk
312,340,condition1,yellow_wallet,denarnica,3024,104,wallet,[],21.0,Yes,slovenščina,/,SI,ekavica,kajkavski,0,1,da,slovenščina,Male,no,"angleščina, hrvaščina, nemščina",Ne,Chrome,Windows,1080,1920,11.860083333333334,,simk
313,340,condition1,yellow_binder,mapa,2650,105,binder,[],21.0,Yes,slovenščina,/,SI,ekavica,kajkavski,0,1,da,slovenščina,Male,no,"angleščina, hrvaščina, nemščina",Ne,Chrome,Windows,1080,1920,11.860083333333334,,simk
314,340,condition1,blue_yarn,vrvica,6048,106,yarn,[],21.0,Yes,slovenščina,/,SI,ekavica,kajkavski,0,1,da,slovenščina,Male,no,"angleščina, hrvaščina, nemščina",Ne,Chrome,Windows,1080,1920,11.860083333333334,,simk
315,442,condition1,yellow_fence,Ograja,12274,2,fence,[],29.0,Yes,slovenski,,SI,ekavica,kajkavski,0,0,Da,"slovenski, hrvatski",Male,preAndPostAge8,"slovenski, hrvatski, engleski, islenski ",Ne ,Chrome,Windows,864,1536,29.265083333333333,,simk
316,442,condition1,black_helicopter,Helikopter,7297,3,helicopter,[],29.0,Yes,slovenski,,SI,ekavica,kajkavski,0,0,Da,"slovenski, hrvatski",Male,preAndPostAge8,"slovenski, hrvatski, engleski, islenski ",Ne ,Chrome,Windows,864,1536,29.265083333333333,,simk
317,442,condition1,green_tie,Kravata,10375,4,tie,[],29.0,Yes,slovenski,,SI,ekavica,kajkavski,0,0,Da,"slovenski, hrvatski",Male,preAndPostAge8,"slovenski, hrvatski, engleski, islenski ",Ne ,Chrome,Windows,864,1536,29.265083333333333,,simk
318,442,condition1,purple_ribbon,Masnja,7429,5,ribbon,[],29.0,Yes,slovenski,,SI,ekavica,kajkavski,0,0,Da,"slovenski, hrvatski",Male,preAndPostAge8,"slovenski, hrvatski, engleski, islenski ",Ne ,Chrome,Windows,864,1536,29.265083333333333,,simk
319,442,condition1,green_microscope,Mikroskop,7167,6,microscope,[],29.0,Yes,slovenski,,SI,ekavica,kajkavski,0,0,Da,"slovenski, hrvatski",Male,preAndPostAge8,"slovenski, hrvatski, engleski, islenski ",Ne ,Chrome,Windows,864,1536,29.265083333333333,,simk
320,442,condition1,purple_duck,Patka,6711,7,duck,[],29.0,Yes,slovenski,,SI,ekavica,kajkavski,0,0,Da,"slovenski, hrvatski",Male,preAndPostAge8,"slovenski, hrvatski, engleski, islenski ",Ne ,Chrome,Windows,864,1536,29.265083333333333,,simk
321,442,condition1,blue_pencil,Olovka,4863,8,pencil,[],29.0,Yes,slovenski,,SI,ekavica,kajkavski,0,0,Da,"slovenski, hrvatski",Male,preAndPostAge8,"slovenski, hrvatski, engleski, islenski ",Ne ,Chrome,Windows,864,1536,29.265083333333333,,simk
322,442,condition1,blue_mouse,Miska,7135,9,mouse,[],29.0,Yes,slovenski,,SI,ekavica,kajkavski,0,0,Da,"slovenski, hrvatski",Male,preAndPostAge8,"slovenski, hrvatski, engleski, islenski ",Ne ,Chrome,Windows,864,1536,29.265083333333333,,simk
323,442,condition1,black_die,Kocka,5079,10,die,[],29.0,Yes,slovenski,,SI,ekavica,kajkavski,0,0,Da,"slovenski, hrvatski",Male,preAndPostAge8,"slovenski, hrvatski, engleski, islenski ",Ne ,Chrome,Windows,864,1536,29.265083333333333,,simk
324,442,condition1,white_mask,Maska,10976,11,mask,[],29.0,Yes,slovenski,,SI,ekavica,kajkavski,0,0,Da,"slovenski, hrvatski",Male,preAndPostAge8,"slovenski, hrvatski, engleski, islenski ",Ne ,Chrome,Windows,864,1536,29.265083333333333,,simk
325,442,condition1,orange_umbrella,Kisobran,6079,12,umbrella,[],29.0,Yes,slovenski,,SI,ekavica,kajkavski,0,0,Da,"slovenski, hrvatski",Male,preAndPostAge8,"slovenski, hrvatski, engleski, islenski ",Ne ,Chrome,Windows,864,1536,29.265083333333333,,simk
326,442,condition1,red_bucket,kanta,56674,13,bucket,[],29.0,Yes,slovenski,,SI,ekavica,kajkavski,0,0,Da,"slovenski, hrvatski",Male,preAndPostAge8,"slovenski, hrvatski, engleski, islenski ",Ne ,Chrome,Windows,864,1536,29.265083333333333,,simk
327,442,condition1,green_boot,cizma,7993,14,boot,[],29.0,Yes,slovenski,,SI,ekavica,kajkavski,0,0,Da,"slovenski, hrvatski",Male,preAndPostAge8,"slovenski, hrvatski, engleski, islenski ",Ne ,Chrome,Windows,864,1536,29.265083333333333,,simk
328,442,condition1,orange_hammer,cekic,18219,15,hammer,[],29.0,Yes,slovenski,,SI,ekavica,kajkavski,0,0,Da,"slovenski, hrvatski",Male,preAndPostAge8,"slovenski, hrvatski, engleski, islenski ",Ne ,Chrome,Windows,864,1536,29.265083333333333,,simk
329,442,condition1,blue_napkin,maramnica,47863,16,napkin,[],29.0,Yes,slovenski,,SI,ekavica,kajkavski,0,0,Da,"slovenski, hrvatski",Male,preAndPostAge8,"slovenski, hrvatski, engleski, islenski ",Ne ,Chrome,Windows,864,1536,29.265083333333333,,simk
330,442,condition1,white_magnifyingglass,pojacivalo,8188,17,magnifyingglass,[],29.0,Yes,slovenski,,SI,ekavica,kajkavski,0,0,Da,"slovenski, hrvatski",Male,preAndPostAge8,"slovenski, hrvatski, engleski, islenski ",Ne ,Chrome,Windows,864,1536,29.265083333333333,,simk
331,442,condition1,red_billiardball,biljard kugla,10799,18,billiardball,[],29.0,Yes,slovenski,,SI,ekavica,kajkavski,0,0,Da,"slovenski, hrvatski",Male,preAndPostAge8,"slovenski, hrvatski, engleski, islenski ",Ne ,Chrome,Windows,864,1536,29.265083333333333,,simk
332,442,condition1,yellow_cap,kapa,5637,19,cap,[],29.0,Yes,slovenski,,SI,ekavica,kajkavski,0,0,Da,"slovenski, hrvatski",Male,preAndPostAge8,"slovenski, hrvatski, engleski, islenski ",Ne ,Chrome,Windows,864,1536,29.265083333333333,,simk
333,442,condition1,red_coathanger,vjesalica,19362,20,coathanger,[],29.0,Yes,slovenski,,SI,ekavica,kajkavski,0,0,Da,"slovenski, hrvatski",Male,preAndPostAge8,"slovenski, hrvatski, engleski, islenski ",Ne ,Chrome,Windows,864,1536,29.265083333333333,,simk
334,442,condition1,black_lipstick,sminka,4738,21,lipstick,[],29.0,Yes,slovenski,,SI,ekavica,kajkavski,0,0,Da,"slovenski, hrvatski",Male,preAndPostAge8,"slovenski, hrvatski, engleski, islenski ",Ne ,Chrome,Windows,864,1536,29.265083333333333,,simk
335,442,condition1,red_dress,odjelo,20740,22,dress,[],29.0,Yes,slovenski,,SI,ekavica,kajkavski,0,0,Da,"slovenski, hrvatski",Male,preAndPostAge8,"slovenski, hrvatski, engleski, islenski ",Ne ,Chrome,Windows,864,1536,29.265083333333333,,simk
336,442,condition1,black_tent,sator,5875,23,tent,[],29.0,Yes,slovenski,,SI,ekavica,kajkavski,0,0,Da,"slovenski, hrvatski",Male,preAndPostAge8,"slovenski, hrvatski, engleski, islenski ",Ne ,Chrome,Windows,864,1536,29.265083333333333,,simk
337,442,condition1,red_yarn,vrv,38002,24,yarn,[],29.0,Yes,slovenski,,SI,ekavica,kajkavski,0,0,Da,"slovenski, hrvatski",Male,preAndPostAge8,"slovenski, hrvatski, engleski, islenski ",Ne ,Chrome,Windows,864,1536,29.265083333333333,,simk
338,442,condition1,red_flower,ruza,4964,25,flower,[],29.0,Yes,slovenski,,SI,ekavica,kajkavski,0,0,Da,"slovenski, hrvatski",Male,preAndPostAge8,"slovenski, hrvatski, engleski, islenski ",Ne ,Chrome,Windows,864,1536,29.265083333333333,,simk
339,442,condition1,white_binder,mapa,5962,26,binder,[],29.0,Yes,slovenski,,SI,ekavica,kajkavski,0,0,Da,"slovenski, hrvatski",Male,preAndPostAge8,"slovenski, hrvatski, engleski, islenski ",Ne ,Chrome,Windows,864,1536,29.265083333333333,,simk
340,442,condition1,blue_belt,pojas,4507,27,belt,[],29.0,Yes,slovenski,,SI,ekavica,kajkavski,0,0,Da,"slovenski, hrvatski",Male,preAndPostAge8,"slovenski, hrvatski, engleski, islenski ",Ne ,Chrome,Windows,864,1536,29.265083333333333,,simk
341,442,condition1,yellow_shoe,cipela,10440,28,shoe,[],29.0,Yes,slovenski,,SI,ekavica,kajkavski,0,0,Da,"slovenski, hrvatski",Male,preAndPostAge8,"slovenski, hrvatski, engleski, islenski ",Ne ,Chrome,Windows,864,1536,29.265083333333333,,simk
342,442,condition1,black_dresser,omar,5190,29,dresser,[],29.0,Yes,slovenski,,SI,ekavica,kajkavski,0,0,Da,"slovenski, hrvatski",Male,preAndPostAge8,"slovenski, hrvatski, engleski, islenski ",Ne ,Chrome,Windows,864,1536,29.265083333333333,,simk
343,442,condition1,red_book,bukva,6774,30,book,[],29.0,Yes,slovenski,,SI,ekavica,kajkavski,0,0,Da,"slovenski, hrvatski",Male,preAndPostAge8,"slovenski, hrvatski, engleski, islenski ",Ne ,Chrome,Windows,864,1536,29.265083333333333,,simk
344,442,condition1,red_sword,mac,5961,31,sword,[],29.0,Yes,slovenski,,SI,ekavica,kajkavski,0,0,Da,"slovenski, hrvatski",Male,preAndPostAge8,"slovenski, hrvatski, engleski, islenski ",Ne ,Chrome,Windows,864,1536,29.265083333333333,,simk
345,442,condition1,blue_stapler,spajkalo,33723,32,stapler,[],29.0,Yes,slovenski,,SI,ekavica,kajkavski,0,0,Da,"slovenski, hrvatski",Male,preAndPostAge8,"slovenski, hrvatski, engleski, islenski ",Ne ,Chrome,Windows,864,1536,29.265083333333333,,simk
346,442,condition1,white_butterfly,leptir,7772,33,butterfly,[],29.0,Yes,slovenski,,SI,ekavica,kajkavski,0,0,Da,"slovenski, hrvatski",Male,preAndPostAge8,"slovenski, hrvatski, engleski, islenski ",Ne ,Chrome,Windows,864,1536,29.265083333333333,,simk
347,442,condition1,green_shell,solja,8341,34,shell,[],29.0,Yes,slovenski,,SI,ekavica,kajkavski,0,0,Da,"slovenski, hrvatski",Male,preAndPostAge8,"slovenski, hrvatski, engleski, islenski ",Ne ,Chrome,Windows,864,1536,29.265083333333333,,simk
348,442,condition1,blue_present,poklon,9053,35,present,[],29.0,Yes,slovenski,,SI,ekavica,kajkavski,0,0,Da,"slovenski, hrvatski",Male,preAndPostAge8,"slovenski, hrvatski, engleski, islenski ",Ne ,Chrome,Windows,864,1536,29.265083333333333,,simk
349,442,condition1,orange_remote,daljinski,14739,36,remote,[],29.0,Yes,slovenski,,SI,ekavica,kajkavski,0,0,Da,"slovenski, hrvatski",Male,preAndPostAge8,"slovenski, hrvatski, engleski, islenski ",Ne ,Chrome,Windows,864,1536,29.265083333333333,,simk
350,442,condition1,green_razor,britva,6446,37,razor,[],29.0,Yes,slovenski,,SI,ekavica,kajkavski,0,0,Da,"slovenski, hrvatski",Male,preAndPostAge8,"slovenski, hrvatski, engleski, islenski ",Ne ,Chrome,Windows,864,1536,29.265083333333333,,simk
351,442,condition1,yellow_balloon,balon,4540,38,balloon,[],29.0,Yes,slovenski,,SI,ekavica,kajkavski,0,0,Da,"slovenski, hrvatski",Male,preAndPostAge8,"slovenski, hrvatski, engleski, islenski ",Ne ,Chrome,Windows,864,1536,29.265083333333333,,simk
352,442,condition1,purple_plate,tanjir,4880,39,plate,[],29.0,Yes,slovenski,,SI,ekavica,kajkavski,0,0,Da,"slovenski, hrvatski",Male,preAndPostAge8,"slovenski, hrvatski, engleski, islenski ",Ne ,Chrome,Windows,864,1536,29.265083333333333,,simk
353,442,condition1,blue_ring,prsten,5173,40,ring,[],29.0,Yes,slovenski,,SI,ekavica,kajkavski,0,0,Da,"slovenski, hrvatski",Male,preAndPostAge8,"slovenski, hrvatski, engleski, islenski ",Ne ,Chrome,Windows,864,1536,29.265083333333333,,simk
354,442,condition1,orange_glove,rukavica,5327,41,glove,[],29.0,Yes,slovenski,,SI,ekavica,kajkavski,0,0,Da,"slovenski, hrvatski",Male,preAndPostAge8,"slovenski, hrvatski, engleski, islenski ",Ne ,Chrome,Windows,864,1536,29.265083333333333,,simk
355,442,condition1,purple_tv,televizor,5638,42,tv,[],29.0,Yes,slovenski,,SI,ekavica,kajkavski,0,0,Da,"slovenski, hrvatski",Male,preAndPostAge8,"slovenski, hrvatski, engleski, islenski ",Ne ,Chrome,Windows,864,1536,29.265083333333333,,simk
356,442,condition1,purple_fork,viljuska,9505,43,fork,[],29.0,Yes,slovenski,,SI,ekavica,kajkavski,0,0,Da,"slovenski, hrvatski",Male,preAndPostAge8,"slovenski, hrvatski, engleski, islenski ",Ne ,Chrome,Windows,864,1536,29.265083333333333,,simk
357,442,condition1,blue_candle,sveca,5241,44,candle,[],29.0,Yes,slovenski,,SI,ekavica,kajkavski,0,0,Da,"slovenski, hrvatski",Male,preAndPostAge8,"slovenski, hrvatski, engleski, islenski ",Ne ,Chrome,Windows,864,1536,29.265083333333333,,simk
358,442,condition1,blue_rug,tepih,5954,45,rug,[],29.0,Yes,slovenski,,SI,ekavica,kajkavski,0,0,Da,"slovenski, hrvatski",Male,preAndPostAge8,"slovenski, hrvatski, engleski, islenski ",Ne ,Chrome,Windows,864,1536,29.265083333333333,,simk
359,442,condition1,purple_bowl,zdjela,37497,46,bowl,[],29.0,Yes,slovenski,,SI,ekavica,kajkavski,0,0,Da,"slovenski, hrvatski",Male,preAndPostAge8,"slovenski, hrvatski, engleski, islenski ",Ne ,Chrome,Windows,864,1536,29.265083333333333,,simk
360,442,condition1,purple_sock,carapa,8274,47,sock,[],29.0,Yes,slovenski,,SI,ekavica,kajkavski,0,0,Da,"slovenski, hrvatski",Male,preAndPostAge8,"slovenski, hrvatski, engleski, islenski ",Ne ,Chrome,Windows,864,1536,29.265083333333333,,simk
361,442,condition1,black_bonbon,bonbon,4825,48,bonbon,[],29.0,Yes,slovenski,,SI,ekavica,kajkavski,0,0,Da,"slovenski, hrvatski",Male,preAndPostAge8,"slovenski, hrvatski, engleski, islenski ",Ne ,Chrome,Windows,864,1536,29.265083333333333,,simk
362,442,condition1,orange_drum,bubanj,31901,49,drum,[],29.0,Yes,slovenski,,SI,ekavica,kajkavski,0,0,Da,"slovenski, hrvatski",Male,preAndPostAge8,"slovenski, hrvatski, engleski, islenski ",Ne ,Chrome,Windows,864,1536,29.265083333333333,,simk
363,442,condition1,green_vase,vaza,4964,50,vase,[],29.0,Yes,slovenski,,SI,ekavica,kajkavski,0,0,Da,"slovenski, hrvatski",Male,preAndPostAge8,"slovenski, hrvatski, engleski, islenski ",Ne ,Chrome,Windows,864,1536,29.265083333333333,,simk
364,442,condition1,black_piano,klavir,16983,51,piano,[],29.0,Yes,slovenski,,SI,ekavica,kajkavski,0,0,Da,"slovenski, hrvatski",Male,preAndPostAge8,"slovenski, hrvatski, engleski, islenski ",Ne ,Chrome,Windows,864,1536,29.265083333333333,,simk
365,442,condition1,yellow_armchair,sjedalo,13930,52,armchair,[],29.0,Yes,slovenski,,SI,ekavica,kajkavski,0,0,Da,"slovenski, hrvatski",Male,preAndPostAge8,"slovenski, hrvatski, engleski, islenski ",Ne ,Chrome,Windows,864,1536,29.265083333333333,,simk
366,442,condition1,green_spoon,kasika,5850,53,spoon,[],29.0,Yes,slovenski,,SI,ekavica,kajkavski,0,0,Da,"slovenski, hrvatski",Male,preAndPostAge8,"slovenski, hrvatski, engleski, islenski ",Ne ,Chrome,Windows,864,1536,29.265083333333333,,simk
367,442,condition1,orange_binoculars,dvogled,20893,54,binoculars,[],29.0,Yes,slovenski,,SI,ekavica,kajkavski,0,0,Da,"slovenski, hrvatski",Male,preAndPostAge8,"slovenski, hrvatski, engleski, islenski ",Ne ,Chrome,Windows,864,1536,29.265083333333333,,simk
368,442,condition1,orange_luggage,kofer,17437,55,luggage,[],29.0,Yes,slovenski,,SI,ekavica,kajkavski,0,0,Da,"slovenski, hrvatski",Male,preAndPostAge8,"slovenski, hrvatski, engleski, islenski ",Ne ,Chrome,Windows,864,1536,29.265083333333333,,simk
369,442,condition1,red_cushion,jastug,4786,56,cushion,[],29.0,Yes,slovenski,,SI,ekavica,kajkavski,0,0,Da,"slovenski, hrvatski",Male,preAndPostAge8,"slovenski, hrvatski, engleski, islenski ",Ne ,Chrome,Windows,864,1536,29.265083333333333,,simk
370,442,condition1,green_ladle,lopatica,35100,57,ladle,[],29.0,Yes,slovenski,,SI,ekavica,kajkavski,0,0,Da,"slovenski, hrvatski",Male,preAndPostAge8,"slovenski, hrvatski, engleski, islenski ",Ne ,Chrome,Windows,864,1536,29.265083333333333,,simk
371,442,condition1,green_fish,riba,5321,58,fish,[],29.0,Yes,slovenski,,SI,ekavica,kajkavski,0,0,Da,"slovenski, hrvatski",Male,preAndPostAge8,"slovenski, hrvatski, engleski, islenski ",Ne ,Chrome,Windows,864,1536,29.265083333333333,,simk
372,442,condition1,yellow_ruler,ravnilo,10820,59,ruler,[],29.0,Yes,slovenski,,SI,ekavica,kajkavski,0,0,Da,"slovenski, hrvatski",Male,preAndPostAge8,"slovenski, hrvatski, engleski, islenski ",Ne ,Chrome,Windows,864,1536,29.265083333333333,,simk
373,442,condition1,blue_comb,cesalj,21804,60,comb,[],29.0,Yes,slovenski,,SI,ekavica,kajkavski,0,0,Da,"slovenski, hrvatski",Male,preAndPostAge8,"slovenski, hrvatski, engleski, islenski ",Ne ,Chrome,Windows,864,1536,29.265083333333333,,simk
374,442,condition1,red_bed,krevet,7699,61,bed,[],29.0,Yes,slovenski,,SI,ekavica,kajkavski,0,0,Da,"slovenski, hrvatski",Male,preAndPostAge8,"slovenski, hrvatski, engleski, islenski ",Ne ,Chrome,Windows,864,1536,29.265083333333333,,simk
375,442,condition1,yellow_lamp,namizna lampa,46208,62,lamp,[],29.0,Yes,slovenski,,SI,ekavica,kajkavski,0,0,Da,"slovenski, hrvatski",Male,preAndPostAge8,"slovenski, hrvatski, engleski, islenski ",Ne ,Chrome,Windows,864,1536,29.265083333333333,,simk
376,442,condition1,purple_shield,stit,15935,63,shield,[],29.0,Yes,slovenski,,SI,ekavica,kajkavski,0,0,Da,"slovenski, hrvatski",Male,preAndPostAge8,"slovenski, hrvatski, engleski, islenski ",Ne ,Chrome,Windows,864,1536,29.265083333333333,,simk
377,442,condition1,black_radio,radio,4447,64,radio,[],29.0,Yes,slovenski,,SI,ekavica,kajkavski,0,0,Da,"slovenski, hrvatski",Male,preAndPostAge8,"slovenski, hrvatski, engleski, islenski ",Ne ,Chrome,Windows,864,1536,29.265083333333333,,simk
378,442,condition1,green_knife,noz,16418,65,knife,[],29.0,Yes,slovenski,,SI,ekavica,kajkavski,0,0,Da,"slovenski, hrvatski",Male,preAndPostAge8,"slovenski, hrvatski, engleski, islenski ",Ne ,Chrome,Windows,864,1536,29.265083333333333,,simk
379,442,condition1,black_lock,brava,137856,66,lock,[],29.0,Yes,slovenski,,SI,ekavica,kajkavski,0,0,Da,"slovenski, hrvatski",Male,preAndPostAge8,"slovenski, hrvatski, engleski, islenski ",Ne ,Chrome,Windows,864,1536,29.265083333333333,,simk
380,442,condition1,green_screwdriver,upaljac,6293,67,screwdriver,[],29.0,Yes,slovenski,,SI,ekavica,kajkavski,0,0,Da,"slovenski, hrvatski",Male,preAndPostAge8,"slovenski, hrvatski, engleski, islenski ",Ne ,Chrome,Windows,864,1536,29.265083333333333,,simk
381,442,condition1,yellow_frame,okvir,4763,68,frame,[],29.0,Yes,slovenski,,SI,ekavica,kajkavski,0,0,Da,"slovenski, hrvatski",Male,preAndPostAge8,"slovenski, hrvatski, engleski, islenski ",Ne ,Chrome,Windows,864,1536,29.265083333333333,,simk
382,442,condition1,black_sponge,tabure,13886,69,sponge,[],29.0,Yes,slovenski,,SI,ekavica,kajkavski,0,0,Da,"slovenski, hrvatski",Male,preAndPostAge8,"slovenski, hrvatski, engleski, islenski ",Ne ,Chrome,Windows,864,1536,29.265083333333333,,simk
383,442,condition1,red_calculator,kalkulator,26904,70,calculator,[],29.0,Yes,slovenski,,SI,ekavica,kajkavski,0,0,Da,"slovenski, hrvatski",Male,preAndPostAge8,"slovenski, hrvatski, engleski, islenski ",Ne ,Chrome,Windows,864,1536,29.265083333333333,,simk
384,442,condition1,yellow_fryingpan,tavi,31761,71,fryingpan,[],29.0,Yes,slovenski,,SI,ekavica,kajkavski,0,0,Da,"slovenski, hrvatski",Male,preAndPostAge8,"slovenski, hrvatski, engleski, islenski ",Ne ,Chrome,Windows,864,1536,29.265083333333333,,simk
385,442,condition1,white_notebook,organizator,13032,72,notebook,[],29.0,Yes,slovenski,,SI,ekavica,kajkavski,0,0,Da,"slovenski, hrvatski",Male,preAndPostAge8,"slovenski, hrvatski, engleski, islenski ",Ne ,Chrome,Windows,864,1536,29.265083333333333,,simk
386,442,condition1,yellow_crown,kruna,12933,73,crown,[],29.0,Yes,slovenski,,SI,ekavica,kajkavski,0,0,Da,"slovenski, hrvatski",Male,preAndPostAge8,"slovenski, hrvatski, engleski, islenski ",Ne ,Chrome,Windows,864,1536,29.265083333333333,,simk
387,442,condition1,purple_necklace,ogrlica,20712,74,necklace,[],29.0,Yes,slovenski,,SI,ekavica,kajkavski,0,0,Da,"slovenski, hrvatski",Male,preAndPostAge8,"slovenski, hrvatski, engleski, islenski ",Ne ,Chrome,Windows,864,1536,29.265083333333333,,simk
388,442,condition1,green_basket,kosara,19075,75,basket,[],29.0,Yes,slovenski,,SI,ekavica,kajkavski,0,0,Da,"slovenski, hrvatski",Male,preAndPostAge8,"slovenski, hrvatski, engleski, islenski ",Ne ,Chrome,Windows,864,1536,29.265083333333333,,simk
389,442,condition1,purple_rope,vrv,5549,76,rope,[],29.0,Yes,slovenski,,SI,ekavica,kajkavski,0,0,Da,"slovenski, hrvatski",Male,preAndPostAge8,"slovenski, hrvatski, engleski, islenski ",Ne ,Chrome,Windows,864,1536,29.265083333333333,,simk
390,442,condition1,orange_bench,klupa,5396,77,bench,[],29.0,Yes,slovenski,,SI,ekavica,kajkavski,0,0,Da,"slovenski, hrvatski",Male,preAndPostAge8,"slovenski, hrvatski, engleski, islenski ",Ne ,Chrome,Windows,864,1536,29.265083333333333,,simk
391,442,condition1,white_bracelet,biserna ogrlica,11298,78,bracelet,[],29.0,Yes,slovenski,,SI,ekavica,kajkavski,0,0,Da,"slovenski, hrvatski",Male,preAndPostAge8,"slovenski, hrvatski, engleski, islenski ",Ne ,Chrome,Windows,864,1536,29.265083333333333,,simk
392,442,condition1,black_slipper,papuca,6306,79,slipper,[],29.0,Yes,slovenski,,SI,ekavica,kajkavski,0,0,Da,"slovenski, hrvatski",Male,preAndPostAge8,"slovenski, hrvatski, engleski, islenski ",Ne ,Chrome,Windows,864,1536,29.265083333333333,,simk
393,442,condition1,white_bike,bicikel,8287,80,bike,[],29.0,Yes,slovenski,,SI,ekavica,kajkavski,0,0,Da,"slovenski, hrvatski",Male,preAndPostAge8,"slovenski, hrvatski, engleski, islenski ",Ne ,Chrome,Windows,864,1536,29.265083333333333,,simk
394,442,condition1,orange_camera,kamera,17351,81,camera,[],29.0,Yes,slovenski,,SI,ekavica,kajkavski,0,0,Da,"slovenski, hrvatski",Male,preAndPostAge8,"slovenski, hrvatski, engleski, islenski ",Ne ,Chrome,Windows,864,1536,29.265083333333333,,simk
395,442,condition1,yellow_dustpan,posuda za smece,207058,82,dustpan,[],29.0,Yes,slovenski,,SI,ekavica,kajkavski,0,0,Da,"slovenski, hrvatski",Male,preAndPostAge8,"slovenski, hrvatski, engleski, islenski ",Ne ,Chrome,Windows,864,1536,29.265083333333333,,simk
396,442,condition1,purple_shovel,lopata,4822,83,shovel,[],29.0,Yes,slovenski,,SI,ekavica,kajkavski,0,0,Da,"slovenski, hrvatski",Male,preAndPostAge8,"slovenski, hrvatski, engleski, islenski ",Ne ,Chrome,Windows,864,1536,29.265083333333333,,simk
397,442,condition1,yellow_shirt,kosulja,8694,84,shirt,[],29.0,Yes,slovenski,,SI,ekavica,kajkavski,0,0,Da,"slovenski, hrvatski",Male,preAndPostAge8,"slovenski, hrvatski, engleski, islenski ",Ne ,Chrome,Windows,864,1536,29.265083333333333,,simk
398,442,condition1,green_bandaid,obliz,10960,85,bandaid,[],29.0,Yes,slovenski,,SI,ekavica,kajkavski,0,0,Da,"slovenski, hrvatski",Male,preAndPostAge8,"slovenski, hrvatski, engleski, islenski ",Ne ,Chrome,Windows,864,1536,29.265083333333333,,simk
399,442,condition1,yellow_door,vrata,5362,86,door,[],29.0,Yes,slovenski,,SI,ekavica,kajkavski,0,0,Da,"slovenski, hrvatski",Male,preAndPostAge8,"slovenski, hrvatski, engleski, islenski ",Ne ,Chrome,Windows,864,1536,29.265083333333333,,simk
400,442,condition1,white_ornament,zarulja,7481,87,ornament,[],29.0,Yes,slovenski,,SI,ekavica,kajkavski,0,0,Da,"slovenski, hrvatski",Male,preAndPostAge8,"slovenski, hrvatski, engleski, islenski ",Ne ,Chrome,Windows,864,1536,29.265083333333333,,simk
401,442,condition1,yellow_mug,kupa,40531,88,mug,[],29.0,Yes,slovenski,,SI,ekavica,kajkavski,0,0,Da,"slovenski, hrvatski",Male,preAndPostAge8,"slovenski, hrvatski, engleski, islenski ",Ne ,Chrome,Windows,864,1536,29.265083333333333,,simk
402,442,condition1,white_chair,stol,4727,89,chair,[],29.0,Yes,slovenski,,SI,ekavica,kajkavski,0,0,Da,"slovenski, hrvatski",Male,preAndPostAge8,"slovenski, hrvatski, engleski, islenski ",Ne ,Chrome,Windows,864,1536,29.265083333333333,,simk
403,442,condition1,white_iron,pegla,5714,90,iron,[],29.0,Yes,slovenski,,SI,ekavica,kajkavski,0,0,Da,"slovenski, hrvatski",Male,preAndPostAge8,"slovenski, hrvatski, engleski, islenski ",Ne ,Chrome,Windows,864,1536,29.265083333333333,,simk
404,442,condition1,yellow_clock,cas,6822,91,clock,[],29.0,Yes,slovenski,,SI,ekavica,kajkavski,0,0,Da,"slovenski, hrvatski",Male,preAndPostAge8,"slovenski, hrvatski, engleski, islenski ",Ne ,Chrome,Windows,864,1536,29.265083333333333,,simk
405,442,condition1,yellow_wallet,novcanik,10913,92,wallet,[],29.0,Yes,slovenski,,SI,ekavica,kajkavski,0,0,Da,"slovenski, hrvatski",Male,preAndPostAge8,"slovenski, hrvatski, engleski, islenski ",Ne ,Chrome,Windows,864,1536,29.265083333333333,,simk
406,442,condition1,black_box,kutija,7228,93,box,[],29.0,Yes,slovenski,,SI,ekavica,kajkavski,0,0,Da,"slovenski, hrvatski",Male,preAndPostAge8,"slovenski, hrvatski, engleski, islenski ",Ne ,Chrome,Windows,864,1536,29.265083333333333,,simk
407,442,condition1,black_truck,kamion,7774,94,truck,[],29.0,Yes,slovenski,,SI,ekavica,kajkavski,0,0,Da,"slovenski, hrvatski",Male,preAndPostAge8,"slovenski, hrvatski, engleski, islenski ",Ne ,Chrome,Windows,864,1536,29.265083333333333,,simk
408,442,condition1,orange_airplane,aeroplan,22285,95,airplane,[],29.0,Yes,slovenski,,SI,ekavica,kajkavski,0,0,Da,"slovenski, hrvatski",Male,preAndPostAge8,"slovenski, hrvatski, engleski, islenski ",Ne ,Chrome,Windows,864,1536,29.265083333333333,,simk
409,442,condition1,yellow_guitar,gitara,22207,96,guitar,[],29.0,Yes,slovenski,,SI,ekavica,kajkavski,0,0,Da,"slovenski, hrvatski",Male,preAndPostAge8,"slovenski, hrvatski, engleski, islenski ",Ne ,Chrome,Windows,864,1536,29.265083333333333,,simk
410,442,condition1,red_table,klupa,6034,97,table,[],29.0,Yes,slovenski,,SI,ekavica,kajkavski,0,0,Da,"slovenski, hrvatski",Male,preAndPostAge8,"slovenski, hrvatski, engleski, islenski ",Ne ,Chrome,Windows,864,1536,29.265083333333333,,simk
411,442,condition1,red_phone,telefon,5964,98,phone,[],29.0,Yes,slovenski,,SI,ekavica,kajkavski,0,0,Da,"slovenski, hrvatski",Male,preAndPostAge8,"slovenski, hrvatski, engleski, islenski ",Ne ,Chrome,Windows,864,1536,29.265083333333333,,simk
412,442,condition1,green_robot,robot,5261,99,robot,[],29.0,Yes,slovenski,,SI,ekavica,kajkavski,0,0,Da,"slovenski, hrvatski",Male,preAndPostAge8,"slovenski, hrvatski, engleski, islenski ",Ne ,Chrome,Windows,864,1536,29.265083333333333,,simk
413,442,condition1,orange_purse,torbica,21479,100,purse,[],29.0,Yes,slovenski,,SI,ekavica,kajkavski,0,0,Da,"slovenski, hrvatski",Male,preAndPostAge8,"slovenski, hrvatski, engleski, islenski ",Ne ,Chrome,Windows,864,1536,29.265083333333333,,simk
414,442,condition1,green_calendar,kalendar,6069,101,calendar,[],29.0,Yes,slovenski,,SI,ekavica,kajkavski,0,0,Da,"slovenski, hrvatski",Male,preAndPostAge8,"slovenski, hrvatski, engleski, islenski ",Ne ,Chrome,Windows,864,1536,29.265083333333333,,simk
415,442,condition1,black_cake,torta,5925,102,cake,[],29.0,Yes,slovenski,,SI,ekavica,kajkavski,0,0,Da,"slovenski, hrvatski",Male,preAndPostAge8,"slovenski, hrvatski, engleski, islenski ",Ne ,Chrome,Windows,864,1536,29.265083333333333,,simk
416,442,condition1,yellow_switch,prekidac,21218,103,switch,[],29.0,Yes,slovenski,,SI,ekavica,kajkavski,0,0,Da,"slovenski, hrvatski",Male,preAndPostAge8,"slovenski, hrvatski, engleski, islenski ",Ne ,Chrome,Windows,864,1536,29.265083333333333,,simk
417,442,condition1,yellow_key,kljuc,7851,104,key,[],29.0,Yes,slovenski,,SI,ekavica,kajkavski,0,0,Da,"slovenski, hrvatski",Male,preAndPostAge8,"slovenski, hrvatski, engleski, islenski ",Ne ,Chrome,Windows,864,1536,29.265083333333333,,simk
418,442,condition1,green_whistle,zvizdalo,36293,105,whistle,[],29.0,Yes,slovenski,,SI,ekavica,kajkavski,0,0,Da,"slovenski, hrvatski",Male,preAndPostAge8,"slovenski, hrvatski, engleski, islenski ",Ne ,Chrome,Windows,864,1536,29.265083333333333,,simk
419,442,condition1,yellow_scarf,sal,4100,106,scarf,[],29.0,Yes,slovenski,,SI,ekavica,kajkavski,0,0,Da,"slovenski, hrvatski",Male,preAndPostAge8,"slovenski, hrvatski, engleski, islenski ",Ne ,Chrome,Windows,864,1536,29.265083333333333,,simk
420,321,condition1,black_purse,Torbica,42567,2,purse,[],32.0,Yes,slovenski,,SI,ekavica,kajkavski,3,2,,slovenski,Male,preAndPostAge8,"srbohrvatski, engleski",,Chrome,Linux,748,360,22.771216666666668,,simk
421,321,condition1,red_clock,Sat,5893,3,clock,[],32.0,Yes,slovenski,,SI,ekavica,kajkavski,3,2,,slovenski,Male,preAndPostAge8,"srbohrvatski, engleski",,Chrome,Linux,748,360,22.771216666666668,,simk
422,321,condition1,white_present,Poklon,4029,4,present,[],32.0,Yes,slovenski,,SI,ekavica,kajkavski,3,2,,slovenski,Male,preAndPostAge8,"srbohrvatski, engleski",,Chrome,Linux,748,360,22.771216666666668,,simk
423,321,condition1,orange_umbrella,Kišobran,8475,5,umbrella,[],32.0,Yes,slovenski,,SI,ekavica,kajkavski,3,2,,slovenski,Male,preAndPostAge8,"srbohrvatski, engleski",,Chrome,Linux,748,360,22.771216666666668,,simk
424,321,condition1,blue_coathanger,Vješalica,23007,6,coathanger,[],32.0,Yes,slovenski,,SI,ekavica,kajkavski,3,2,,slovenski,Male,preAndPostAge8,"srbohrvatski, engleski",,Chrome,Linux,748,360,22.771216666666668,,simk
425,321,condition1,yellow_sword,Mač,5110,7,sword,[],32.0,Yes,slovenski,,SI,ekavica,kajkavski,3,2,,slovenski,Male,preAndPostAge8,"srbohrvatski, engleski",,Chrome,Linux,748,360,22.771216666666668,,simk
426,321,condition1,white_ornament,Kugla,20614,8,ornament,[],32.0,Yes,slovenski,,SI,ekavica,kajkavski,3,2,,slovenski,Male,preAndPostAge8,"srbohrvatski, engleski",,Chrome,Linux,748,360,22.771216666666668,,simk
427,321,condition1,black_lipstick,Šminka,6196,9,lipstick,[],32.0,Yes,slovenski,,SI,ekavica,kajkavski,3,2,,slovenski,Male,preAndPostAge8,"srbohrvatski, engleski",,Chrome,Linux,748,360,22.771216666666668,,simk
428,321,condition1,yellow_phone,Telefon,4708,10,phone,[],32.0,Yes,slovenski,,SI,ekavica,kajkavski,3,2,,slovenski,Male,preAndPostAge8,"srbohrvatski, engleski",,Chrome,Linux,748,360,22.771216666666668,,simk
429,321,condition1,yellow_iron,Pegla,6603,11,iron,[],32.0,Yes,slovenski,,SI,ekavica,kajkavski,3,2,,slovenski,Male,preAndPostAge8,"srbohrvatski, engleski",,Chrome,Linux,748,360,22.771216666666668,,simk
430,321,condition1,blue_mug,Šolja,23493,12,mug,[],32.0,Yes,slovenski,,SI,ekavica,kajkavski,3,2,,slovenski,Male,preAndPostAge8,"srbohrvatski, engleski",,Chrome,Linux,748,360,22.771216666666668,,simk
431,321,condition1,orange_ladle,Kašika za supu,28539,13,ladle,[],32.0,Yes,slovenski,,SI,ekavica,kajkavski,3,2,,slovenski,Male,preAndPostAge8,"srbohrvatski, engleski",,Chrome,Linux,748,360,22.771216666666668,,simk
432,321,condition1,black_bonbon,Bombon,5857,14,bonbon,[],32.0,Yes,slovenski,,SI,ekavica,kajkavski,3,2,,slovenski,Male,preAndPostAge8,"srbohrvatski, engleski",,Chrome,Linux,748,360,22.771216666666668,,simk
433,321,condition1,purple_slipper,Papuča,22766,15,slipper,[],32.0,Yes,slovenski,,SI,ekavica,kajkavski,3,2,,slovenski,Male,preAndPostAge8,"srbohrvatski, engleski",,Chrome,Linux,748,360,22.771216666666668,,simk
434,321,condition1,yellow_binder,Mapa,5616,16,binder,[],32.0,Yes,slovenski,,SI,ekavica,kajkavski,3,2,,slovenski,Male,preAndPostAge8,"srbohrvatski, engleski",,Chrome,Linux,748,360,22.771216666666668,,simk
435,321,condition1,blue_calculator,Kalkulator,9866,17,calculator,[],32.0,Yes,slovenski,,SI,ekavica,kajkavski,3,2,,slovenski,Male,preAndPostAge8,"srbohrvatski, engleski",,Chrome,Linux,748,360,22.771216666666668,,simk
436,321,condition1,yellow_bed,Krevet,5256,18,bed,[],32.0,Yes,slovenski,,SI,ekavica,kajkavski,3,2,,slovenski,Male,preAndPostAge8,"srbohrvatski, engleski",,Chrome,Linux,748,360,22.771216666666668,,simk
437,321,condition1,yellow_switch,Preliva C,29403,19,switch,[],32.0,Yes,slovenski,,SI,ekavica,kajkavski,3,2,,slovenski,Male,preAndPostAge8,"srbohrvatski, engleski",,Chrome,Linux,748,360,22.771216666666668,,simk
438,321,condition1,green_razor,Žiletka,8501,20,razor,[],32.0,Yes,slovenski,,SI,ekavica,kajkavski,3,2,,slovenski,Male,preAndPostAge8,"srbohrvatski, engleski",,Chrome,Linux,748,360,22.771216666666668,,simk
439,321,condition1,green_bandaid,Flajšter,9392,21,bandaid,[],32.0,Yes,slovenski,,SI,ekavica,kajkavski,3,2,,slovenski,Male,preAndPostAge8,"srbohrvatski, engleski",,Chrome,Linux,748,360,22.771216666666668,,simk
440,321,condition1,yellow_door,Vrata,18038,22,door,[],32.0,Yes,slovenski,,SI,ekavica,kajkavski,3,2,,slovenski,Male,preAndPostAge8,"srbohrvatski, engleski",,Chrome,Linux,748,360,22.771216666666668,,simk
441,321,condition1,white_book,Knjiga,3960,23,book,[],32.0,Yes,slovenski,,SI,ekavica,kajkavski,3,2,,slovenski,Male,preAndPostAge8,"srbohrvatski, engleski",,Chrome,Linux,748,360,22.771216666666668,,simk
442,321,condition1,red_rug,Tepih,5083,24,rug,[],32.0,Yes,slovenski,,SI,ekavica,kajkavski,3,2,,slovenski,Male,preAndPostAge8,"srbohrvatski, engleski",,Chrome,Linux,748,360,22.771216666666668,,simk
443,321,condition1,blue_stapler,Heftalica,16497,25,stapler,[],32.0,Yes,slovenski,,SI,ekavica,kajkavski,3,2,,slovenski,Male,preAndPostAge8,"srbohrvatski, engleski",,Chrome,Linux,748,360,22.771216666666668,,simk
444,321,condition1,white_billiardball,Snooker kugla,15435,26,billiardball,[],32.0,Yes,slovenski,,SI,ekavica,kajkavski,3,2,,slovenski,Male,preAndPostAge8,"srbohrvatski, engleski",,Chrome,Linux,748,360,22.771216666666668,,simk
445,321,condition1,yellow_napkin,Salveta,19936,27,napkin,[],32.0,Yes,slovenski,,SI,ekavica,kajkavski,3,2,,slovenski,Male,preAndPostAge8,"srbohrvatski, engleski",,Chrome,Linux,748,360,22.771216666666668,,simk
446,321,condition1,white_armchair,Stolica,15169,28,armchair,[],32.0,Yes,slovenski,,SI,ekavica,kajkavski,3,2,,slovenski,Male,preAndPostAge8,"srbohrvatski, engleski",,Chrome,Linux,748,360,22.771216666666668,,simk
447,321,condition1,orange_boot,Cipela,6765,29,boot,[],32.0,Yes,slovenski,,SI,ekavica,kajkavski,3,2,,slovenski,Male,preAndPostAge8,"srbohrvatski, engleski",,Chrome,Linux,748,360,22.771216666666668,,simk
448,321,condition1,orange_drum,Bubanj,4217,30,drum,[],32.0,Yes,slovenski,,SI,ekavica,kajkavski,3,2,,slovenski,Male,preAndPostAge8,"srbohrvatski, engleski",,Chrome,Linux,748,360,22.771216666666668,,simk
449,321,condition1,purple_plate,Tanjir,4290,31,plate,[],32.0,Yes,slovenski,,SI,ekavica,kajkavski,3,2,,slovenski,Male,preAndPostAge8,"srbohrvatski, engleski",,Chrome,Linux,748,360,22.771216666666668,,simk
450,321,condition1,yellow_bucket,Ajmer,25659,32,bucket,[],32.0,Yes,slovenski,,SI,ekavica,kajkavski,3,2,,slovenski,Male,preAndPostAge8,"srbohrvatski, engleski",,Chrome,Linux,748,360,22.771216666666668,,simk
451,321,condition1,purple_ribbon,Petlja,5959,33,ribbon,[],32.0,Yes,slovenski,,SI,ekavica,kajkavski,3,2,,slovenski,Male,preAndPostAge8,"srbohrvatski, engleski",,Chrome,Linux,748,360,22.771216666666668,,simk
452,321,condition1,white_cap,Kapa,4406,34,cap,[],32.0,Yes,slovenski,,SI,ekavica,kajkavski,3,2,,slovenski,Male,preAndPostAge8,"srbohrvatski, engleski",,Chrome,Linux,748,360,22.771216666666668,,simk
453,321,condition1,white_fryingpan,Tepsija,33464,35,fryingpan,[],32.0,Yes,slovenski,,SI,ekavica,kajkavski,3,2,,slovenski,Male,preAndPostAge8,"srbohrvatski, engleski",,Chrome,Linux,748,360,22.771216666666668,,simk
454,321,condition1,purple_tv,Televizor ,34792,36,tv,[],32.0,Yes,slovenski,,SI,ekavica,kajkavski,3,2,,slovenski,Male,preAndPostAge8,"srbohrvatski, engleski",,Chrome,Linux,748,360,22.771216666666668,,simk
455,321,condition1,yellow_wallet,Novcanik,8082,37,wallet,[],32.0,Yes,slovenski,,SI,ekavica,kajkavski,3,2,,slovenski,Male,preAndPostAge8,"srbohrvatski, engleski",,Chrome,Linux,748,360,22.771216666666668,,simk
456,321,condition1,orange_luggage,Kofer,18051,38,luggage,[],32.0,Yes,slovenski,,SI,ekavica,kajkavski,3,2,,slovenski,Male,preAndPostAge8,"srbohrvatski, engleski",,Chrome,Linux,748,360,22.771216666666668,,simk
457,321,condition1,green_lock,Zaključaj,24518,39,lock,[],32.0,Yes,slovenski,,SI,ekavica,kajkavski,3,2,,slovenski,Male,preAndPostAge8,"srbohrvatski, engleski",,Chrome,Linux,748,360,22.771216666666668,,simk
458,321,condition1,green_bench,Klupa,5372,40,bench,[],32.0,Yes,slovenski,,SI,ekavica,kajkavski,3,2,,slovenski,Male,preAndPostAge8,"srbohrvatski, engleski",,Chrome,Linux,748,360,22.771216666666668,,simk
459,321,condition1,green_shell,Skoljka,5042,41,shell,[],32.0,Yes,slovenski,,SI,ekavica,kajkavski,3,2,,slovenski,Male,preAndPostAge8,"srbohrvatski, engleski",,Chrome,Linux,748,360,22.771216666666668,,simk
