workerid,proliferate.condition,object,response,rt,slide_number_in_experiment,utterance,catch_trials,subject_information.age,subject_information.asses,subject_information.comments,subject_information.country,subject_information.education,subject_information.enjoyment,subject_information.fairprice,subject_information.firstLanguage,subject_information.frenPrimaryLanguageSchool,subject_information.gender,subject_information.liveInFrenReg,subject_information.otherLanguage,subject_information.problems,subject_information.region,system.Browser,system.OS,system.screenH,system.screenW,time_in_minutes,error
113,condition1,orange_lock,jaune,3910,2,lock,[],27,Yes,,martinique,4,1,oui,francais,francais,Female,preAndPostAge8,"anglais, espagnol",non,FR,Chrome,Mac,800,1280,4.394933333333333,
113,condition1,purple_bowl,"
violet",1976,3,bowl,[],27,Yes,,martinique,4,1,oui,francais,francais,Female,preAndPostAge8,"anglais, espagnol",non,FR,Chrome,Mac,800,1280,4.394933333333333,
113,condition1,green_whistle,"
vert",1552,4,whistle,[],27,Yes,,martinique,4,1,oui,francais,francais,Female,preAndPostAge8,"anglais, espagnol",non,FR,Chrome,Mac,800,1280,4.394933333333333,
113,condition1,green_robot,"
vert",1648,5,robot,[],27,Yes,,martinique,4,1,oui,francais,francais,Female,preAndPostAge8,"anglais, espagnol",non,FR,Chrome,Mac,800,1280,4.394933333333333,
113,condition1,purple_hammer,"
violet",2129,6,hammer,[],27,Yes,,martinique,4,1,oui,francais,francais,Female,preAndPostAge8,"anglais, espagnol",non,FR,Chrome,Mac,800,1280,4.394933333333333,
113,condition1,black_box,"
noir",1535,7,box,[],27,Yes,,martinique,4,1,oui,francais,francais,Female,preAndPostAge8,"anglais, espagnol",non,FR,Chrome,Mac,800,1280,4.394933333333333,
113,condition1,purple_tent,"
violet",2152,8,tent,[],27,Yes,,martinique,4,1,oui,francais,francais,Female,preAndPostAge8,"anglais, espagnol",non,FR,Chrome,Mac,800,1280,4.394933333333333,
113,condition1,purple_shell,"
violet",2345,9,shell,[],27,Yes,,martinique,4,1,oui,francais,francais,Female,preAndPostAge8,"anglais, espagnol",non,FR,Chrome,Mac,800,1280,4.394933333333333,
113,condition1,yellow_cushion,"
jaune",1591,10,cushion,[],27,Yes,,martinique,4,1,oui,francais,francais,Female,preAndPostAge8,"anglais, espagnol",non,FR,Chrome,Mac,800,1280,4.394933333333333,
113,condition1,yellow_ring,"
jaune",1608,11,ring,[],27,Yes,,martinique,4,1,oui,francais,francais,Female,preAndPostAge8,"anglais, espagnol",non,FR,Chrome,Mac,800,1280,4.394933333333333,
113,condition1,white_fence,"
blanc",2183,12,fence,[],27,Yes,,martinique,4,1,oui,francais,francais,Female,preAndPostAge8,"anglais, espagnol",non,FR,Chrome,Mac,800,1280,4.394933333333333,
113,condition1,black_vase,"
noir",1463,13,vase,[],27,Yes,,martinique,4,1,oui,francais,francais,Female,preAndPostAge8,"anglais, espagnol",non,FR,Chrome,Mac,800,1280,4.394933333333333,
113,condition1,blue_dress,"
bleu",3640,14,dress,[],27,Yes,,martinique,4,1,oui,francais,francais,Female,preAndPostAge8,"anglais, espagnol",non,FR,Chrome,Mac,800,1280,4.394933333333333,
113,condition1,blue_bed,"
bleu",1687,15,bed,[],27,Yes,,martinique,4,1,oui,francais,francais,Female,preAndPostAge8,"anglais, espagnol",non,FR,Chrome,Mac,800,1280,4.394933333333333,
113,condition1,black_microscope,"
noir",1896,16,microscope,[],27,Yes,,martinique,4,1,oui,francais,francais,Female,preAndPostAge8,"anglais, espagnol",non,FR,Chrome,Mac,800,1280,4.394933333333333,
113,condition1,blue_key,"
bleu",1631,17,key,[],27,Yes,,martinique,4,1,oui,francais,francais,Female,preAndPostAge8,"anglais, espagnol",non,FR,Chrome,Mac,800,1280,4.394933333333333,
113,condition1,yellow_clock,"
jaune",1695,18,clock,[],27,Yes,,martinique,4,1,oui,francais,francais,Female,preAndPostAge8,"anglais, espagnol",non,FR,Chrome,Mac,800,1280,4.394933333333333,
113,condition1,blue_mask,"
bleu",5616,19,mask,[],27,Yes,,martinique,4,1,oui,francais,francais,Female,preAndPostAge8,"anglais, espagnol",non,FR,Chrome,Mac,800,1280,4.394933333333333,
113,condition1,yellow_yarn,"
jaune",1839,20,yarn,[],27,Yes,,martinique,4,1,oui,francais,francais,Female,preAndPostAge8,"anglais, espagnol",non,FR,Chrome,Mac,800,1280,4.394933333333333,
113,condition1,red_napkin,"
rouge",2072,21,napkin,[],27,Yes,,martinique,4,1,oui,francais,francais,Female,preAndPostAge8,"anglais, espagnol",non,FR,Chrome,Mac,800,1280,4.394933333333333,
113,condition1,green_truck,"
vert",1672,22,truck,[],27,Yes,,martinique,4,1,oui,francais,francais,Female,preAndPostAge8,"anglais, espagnol",non,FR,Chrome,Mac,800,1280,4.394933333333333,
113,condition1,red_calculator,"
rouge",1872,23,calculator,[],27,Yes,,martinique,4,1,oui,francais,francais,Female,preAndPostAge8,"anglais, espagnol",non,FR,Chrome,Mac,800,1280,4.394933333333333,
113,condition1,black_bench,"
noir",1432,24,bench,[],27,Yes,,martinique,4,1,oui,francais,francais,Female,preAndPostAge8,"anglais, espagnol",non,FR,Chrome,Mac,800,1280,4.394933333333333,
113,condition1,black_fish,"
noir",1287,25,fish,[],27,Yes,,martinique,4,1,oui,francais,francais,Female,preAndPostAge8,"anglais, espagnol",non,FR,Chrome,Mac,800,1280,4.394933333333333,
113,condition1,green_plate,"
vert",1752,26,plate,[],27,Yes,,martinique,4,1,oui,francais,francais,Female,preAndPostAge8,"anglais, espagnol",non,FR,Chrome,Mac,800,1280,4.394933333333333,
113,condition1,green_ribbon,"
vert",1631,27,ribbon,[],27,Yes,,martinique,4,1,oui,francais,francais,Female,preAndPostAge8,"anglais, espagnol",non,FR,Chrome,Mac,800,1280,4.394933333333333,
113,condition1,white_butterfly,"
blanc",1983,28,butterfly,[],27,Yes,,martinique,4,1,oui,francais,francais,Female,preAndPostAge8,"anglais, espagnol",non,FR,Chrome,Mac,800,1280,4.394933333333333,
113,condition1,black_boot,"
noir",1856,29,boot,[],27,Yes,,martinique,4,1,oui,francais,francais,Female,preAndPostAge8,"anglais, espagnol",non,FR,Chrome,Mac,800,1280,4.394933333333333,
113,condition1,white_stapler,"
blanc",1752,30,stapler,[],27,Yes,,martinique,4,1,oui,francais,francais,Female,preAndPostAge8,"anglais, espagnol",non,FR,Chrome,Mac,800,1280,4.394933333333333,
113,condition1,orange_slipper,"
orange",2312,31,slipper,[],27,Yes,,martinique,4,1,oui,francais,francais,Female,preAndPostAge8,"anglais, espagnol",non,FR,Chrome,Mac,800,1280,4.394933333333333,
113,condition1,red_ornament,"
rouge",1872,32,ornament,[],27,Yes,,martinique,4,1,oui,francais,francais,Female,preAndPostAge8,"anglais, espagnol",non,FR,Chrome,Mac,800,1280,4.394933333333333,
113,condition1,blue_binder,"
bleu",1456,33,binder,[],27,Yes,,martinique,4,1,oui,francais,francais,Female,preAndPostAge8,"anglais, espagnol",non,FR,Chrome,Mac,800,1280,4.394933333333333,
113,condition1,yellow_bike,"
jaune",1632,34,bike,[],27,Yes,,martinique,4,1,oui,francais,francais,Female,preAndPostAge8,"anglais, espagnol",non,FR,Chrome,Mac,800,1280,4.394933333333333,
113,condition1,white_balloon,"
blanc",2304,35,balloon,[],27,Yes,,martinique,4,1,oui,francais,francais,Female,preAndPostAge8,"anglais, espagnol",non,FR,Chrome,Mac,800,1280,4.394933333333333,
113,condition1,red_iron,"
rouge",2248,36,iron,[],27,Yes,,martinique,4,1,oui,francais,francais,Female,preAndPostAge8,"anglais, espagnol",non,FR,Chrome,Mac,800,1280,4.394933333333333,
113,condition1,purple_calendar,"
violet",1904,37,calendar,[],27,Yes,,martinique,4,1,oui,francais,francais,Female,preAndPostAge8,"anglais, espagnol",non,FR,Chrome,Mac,800,1280,4.394933333333333,
113,condition1,black_piano,"
noir",1351,38,piano,[],27,Yes,,martinique,4,1,oui,francais,francais,Female,preAndPostAge8,"anglais, espagnol",non,FR,Chrome,Mac,800,1280,4.394933333333333,
113,condition1,yellow_ruler,"
jaune",1911,39,ruler,[],27,Yes,,martinique,4,1,oui,francais,francais,Female,preAndPostAge8,"anglais, espagnol",non,FR,Chrome,Mac,800,1280,4.394933333333333,
113,condition1,orange_tv,"
orange",2240,40,tv,[],27,Yes,,martinique,4,1,oui,francais,francais,Female,preAndPostAge8,"anglais, espagnol",non,FR,Chrome,Mac,800,1280,4.394933333333333,
113,condition1,red_magnifyingglass,"
rouge",1999,41,magnifyingglass,[],27,Yes,,martinique,4,1,oui,francais,francais,Female,preAndPostAge8,"anglais, espagnol",non,FR,Chrome,Mac,800,1280,4.394933333333333,
113,condition1,black_knife,"
noir",1559,42,knife,[],27,Yes,,martinique,4,1,oui,francais,francais,Female,preAndPostAge8,"anglais, espagnol",non,FR,Chrome,Mac,800,1280,4.394933333333333,
113,condition1,yellow_present,"
jaune",1664,43,present,[],27,Yes,,martinique,4,1,oui,francais,francais,Female,preAndPostAge8,"anglais, espagnol",non,FR,Chrome,Mac,800,1280,4.394933333333333,
113,condition1,purple_drum,"
violet",2280,44,drum,[],27,Yes,,martinique,4,1,oui,francais,francais,Female,preAndPostAge8,"anglais, espagnol",non,FR,Chrome,Mac,800,1280,4.394933333333333,
113,condition1,purple_camera,"
violet",2944,45,camera,[],27,Yes,,martinique,4,1,oui,francais,francais,Female,preAndPostAge8,"anglais, espagnol",non,FR,Chrome,Mac,800,1280,4.394933333333333,
113,condition1,green_bandaid,"
vert",2304,46,bandaid,[],27,Yes,,martinique,4,1,oui,francais,francais,Female,preAndPostAge8,"anglais, espagnol",non,FR,Chrome,Mac,800,1280,4.394933333333333,
113,condition1,orange_cake,"
orange",1961,47,cake,[],27,Yes,,martinique,4,1,oui,francais,francais,Female,preAndPostAge8,"anglais, espagnol",non,FR,Chrome,Mac,800,1280,4.394933333333333,
113,condition1,purple_fork,"
violet",1935,48,fork,[],27,Yes,,martinique,4,1,oui,francais,francais,Female,preAndPostAge8,"anglais, espagnol",non,FR,Chrome,Mac,800,1280,4.394933333333333,
113,condition1,black_shield,"
noir",1608,49,shield,[],27,Yes,,martinique,4,1,oui,francais,francais,Female,preAndPostAge8,"anglais, espagnol",non,FR,Chrome,Mac,800,1280,4.394933333333333,
113,condition1,orange_luggage,"
orange",2160,50,luggage,[],27,Yes,,martinique,4,1,oui,francais,francais,Female,preAndPostAge8,"anglais, espagnol",non,FR,Chrome,Mac,800,1280,4.394933333333333,
113,condition1,black_tie,"
noir",1568,51,tie,[],27,Yes,,martinique,4,1,oui,francais,francais,Female,preAndPostAge8,"anglais, espagnol",non,FR,Chrome,Mac,800,1280,4.394933333333333,
113,condition1,yellow_cap,"
jaune",1432,52,cap,[],27,Yes,,martinique,4,1,oui,francais,francais,Female,preAndPostAge8,"anglais, espagnol",non,FR,Chrome,Mac,800,1280,4.394933333333333,
113,condition1,yellow_dustpan,"
jaune",2032,53,dustpan,[],27,Yes,,martinique,4,1,oui,francais,francais,Female,preAndPostAge8,"anglais, espagnol",non,FR,Chrome,Mac,800,1280,4.394933333333333,
113,condition1,purple_remote,"
violet",1776,54,remote,[],27,Yes,,martinique,4,1,oui,francais,francais,Female,preAndPostAge8,"anglais, espagnol",non,FR,Chrome,Mac,800,1280,4.394933333333333,
113,condition1,blue_notebook,"
bleu",1808,55,notebook,[],27,Yes,,martinique,4,1,oui,francais,francais,Female,preAndPostAge8,"anglais, espagnol",non,FR,Chrome,Mac,800,1280,4.394933333333333,
113,condition1,green_razor,"
vert",1632,56,razor,[],27,Yes,,martinique,4,1,oui,francais,francais,Female,preAndPostAge8,"anglais, espagnol",non,FR,Chrome,Mac,800,1280,4.394933333333333,
113,condition1,red_bracelet,"
rouge",1864,57,bracelet,[],27,Yes,,martinique,4,1,oui,francais,francais,Female,preAndPostAge8,"anglais, espagnol",non,FR,Chrome,Mac,800,1280,4.394933333333333,
113,condition1,green_bonbon,"
vert",1704,58,bonbon,[],27,Yes,,martinique,4,1,oui,francais,francais,Female,preAndPostAge8,"anglais, espagnol",non,FR,Chrome,Mac,800,1280,4.394933333333333,
113,condition1,black_glove,"
noir",1496,59,glove,[],27,Yes,,martinique,4,1,oui,francais,francais,Female,preAndPostAge8,"anglais, espagnol",non,FR,Chrome,Mac,800,1280,4.394933333333333,
113,condition1,black_ladle,"
noir",1544,60,ladle,[],27,Yes,,martinique,4,1,oui,francais,francais,Female,preAndPostAge8,"anglais, espagnol",non,FR,Chrome,Mac,800,1280,4.394933333333333,
113,condition1,white_book,"
blanc",1791,61,book,[],27,Yes,,martinique,4,1,oui,francais,francais,Female,preAndPostAge8,"anglais, espagnol",non,FR,Chrome,Mac,800,1280,4.394933333333333,
113,condition1,blue_door,"
bleu",2769,62,door,[],27,Yes,,martinique,4,1,oui,francais,francais,Female,preAndPostAge8,"anglais, espagnol",non,FR,Chrome,Mac,800,1280,4.394933333333333,
113,condition1,orange_radio,"
orange",2296,63,radio,[],27,Yes,,martinique,4,1,oui,francais,francais,Female,preAndPostAge8,"anglais, espagnol",non,FR,Chrome,Mac,800,1280,4.394933333333333,
113,condition1,green_die,"
vert",1951,64,die,[],27,Yes,,martinique,4,1,oui,francais,francais,Female,preAndPostAge8,"anglais, espagnol",non,FR,Chrome,Mac,800,1280,4.394933333333333,
113,condition1,green_screwdriver,"
vert",1488,65,screwdriver,[],27,Yes,,martinique,4,1,oui,francais,francais,Female,preAndPostAge8,"anglais, espagnol",non,FR,Chrome,Mac,800,1280,4.394933333333333,
113,condition1,green_lipstick,"
vert",1239,66,lipstick,[],27,Yes,,martinique,4,1,oui,francais,francais,Female,preAndPostAge8,"anglais, espagnol",non,FR,Chrome,Mac,800,1280,4.394933333333333,
113,condition1,red_lamp,"
rouge",1840,67,lamp,[],27,Yes,,martinique,4,1,oui,francais,francais,Female,preAndPostAge8,"anglais, espagnol",non,FR,Chrome,Mac,800,1280,4.394933333333333,
113,condition1,yellow_comb,"
jaune",1568,68,comb,[],27,Yes,,martinique,4,1,oui,francais,francais,Female,preAndPostAge8,"anglais, espagnol",non,FR,Chrome,Mac,800,1280,4.394933333333333,
113,condition1,red_billiardball,"
rouge",1823,69,billiardball,[],27,Yes,,martinique,4,1,oui,francais,francais,Female,preAndPostAge8,"anglais, espagnol",non,FR,Chrome,Mac,800,1280,4.394933333333333,
113,condition1,blue_table,"
bleu",1800,70,table,[],27,Yes,,martinique,4,1,oui,francais,francais,Female,preAndPostAge8,"anglais, espagnol",non,FR,Chrome,Mac,800,1280,4.394933333333333,
113,condition1,orange_necklace,"
orange",4088,71,necklace,[],27,Yes,,martinique,4,1,oui,francais,francais,Female,preAndPostAge8,"anglais, espagnol",non,FR,Chrome,Mac,800,1280,4.394933333333333,
113,condition1,blue_mug,"
bleu",1296,72,mug,[],27,Yes,,martinique,4,1,oui,francais,francais,Female,preAndPostAge8,"anglais, espagnol",non,FR,Chrome,Mac,800,1280,4.394933333333333,
113,condition1,white_shoe,"
blanc",1736,73,shoe,[],27,Yes,,martinique,4,1,oui,francais,francais,Female,preAndPostAge8,"anglais, espagnol",non,FR,Chrome,Mac,800,1280,4.394933333333333,
113,condition1,blue_guitar,"
bleu",1760,74,guitar,[],27,Yes,,martinique,4,1,oui,francais,francais,Female,preAndPostAge8,"anglais, espagnol",non,FR,Chrome,Mac,800,1280,4.394933333333333,
113,condition1,yellow_flower,"
jaune",1488,75,flower,[],27,Yes,,martinique,4,1,oui,francais,francais,Female,preAndPostAge8,"anglais, espagnol",non,FR,Chrome,Mac,800,1280,4.394933333333333,
113,condition1,white_bucket,"
blanc",1712,76,bucket,[],27,Yes,,martinique,4,1,oui,francais,francais,Female,preAndPostAge8,"anglais, espagnol",non,FR,Chrome,Mac,800,1280,4.394933333333333,
113,condition1,black_purse,"
noir",1896,77,purse,[],27,Yes,,martinique,4,1,oui,francais,francais,Female,preAndPostAge8,"anglais, espagnol",non,FR,Chrome,Mac,800,1280,4.394933333333333,
113,condition1,white_coathanger,"
blanc",1808,78,coathanger,[],27,Yes,,martinique,4,1,oui,francais,francais,Female,preAndPostAge8,"anglais, espagnol",non,FR,Chrome,Mac,800,1280,4.394933333333333,
113,condition1,black_sock,"
noir",1520,79,sock,[],27,Yes,,martinique,4,1,oui,francais,francais,Female,preAndPostAge8,"anglais, espagnol",non,FR,Chrome,Mac,800,1280,4.394933333333333,
113,condition1,purple_spoon,"
violet",2647,80,spoon,[],27,Yes,,martinique,4,1,oui,francais,francais,Female,preAndPostAge8,"anglais, espagnol",non,FR,Chrome,Mac,800,1280,4.394933333333333,
113,condition1,white_candle,"
blanc",1793,81,candle,[],27,Yes,,martinique,4,1,oui,francais,francais,Female,preAndPostAge8,"anglais, espagnol",non,FR,Chrome,Mac,800,1280,4.394933333333333,
113,condition1,red_switch,"
rouge",1624,82,switch,[],27,Yes,,martinique,4,1,oui,francais,francais,Female,preAndPostAge8,"anglais, espagnol",non,FR,Chrome,Mac,800,1280,4.394933333333333,
113,condition1,orange_shovel,"
orange",1928,83,shovel,[],27,Yes,,martinique,4,1,oui,francais,francais,Female,preAndPostAge8,"anglais, espagnol",non,FR,Chrome,Mac,800,1280,4.394933333333333,
113,condition1,white_pencil,"
blanc",1832,84,pencil,[],27,Yes,,martinique,4,1,oui,francais,francais,Female,preAndPostAge8,"anglais, espagnol",non,FR,Chrome,Mac,800,1280,4.394933333333333,
113,condition1,orange_rope,"
orange",3080,85,rope,[],27,Yes,,martinique,4,1,oui,francais,francais,Female,preAndPostAge8,"anglais, espagnol",non,FR,Chrome,Mac,800,1280,4.394933333333333,
113,condition1,red_frame,"
rouge",4597,86,frame,[],27,Yes,,martinique,4,1,oui,francais,francais,Female,preAndPostAge8,"anglais, espagnol",non,FR,Chrome,Mac,800,1280,4.394933333333333,
113,condition1,green_basket,"
vert",1952,87,basket,[],27,Yes,,martinique,4,1,oui,francais,francais,Female,preAndPostAge8,"anglais, espagnol",non,FR,Chrome,Mac,800,1280,4.394933333333333,
113,condition1,blue_crown,"
bleu",1695,88,crown,[],27,Yes,,martinique,4,1,oui,francais,francais,Female,preAndPostAge8,"anglais, espagnol",non,FR,Chrome,Mac,800,1280,4.394933333333333,
113,condition1,red_belt,"
rouge",1825,89,belt,[],27,Yes,,martinique,4,1,oui,francais,francais,Female,preAndPostAge8,"anglais, espagnol",non,FR,Chrome,Mac,800,1280,4.394933333333333,
113,condition1,black_umbrella,"
noir",1431,90,umbrella,[],27,Yes,,martinique,4,1,oui,francais,francais,Female,preAndPostAge8,"anglais, espagnol",non,FR,Chrome,Mac,800,1280,4.394933333333333,
113,condition1,purple_sponge,"
violet",1856,91,sponge,[],27,Yes,,martinique,4,1,oui,francais,francais,Female,preAndPostAge8,"anglais, espagnol",non,FR,Chrome,Mac,800,1280,4.394933333333333,
113,condition1,black_duck,"
noir",1576,92,duck,[],27,Yes,,martinique,4,1,oui,francais,francais,Female,preAndPostAge8,"anglais, espagnol",non,FR,Chrome,Mac,800,1280,4.394933333333333,
113,condition1,red_wallet,"
rouge",1871,93,wallet,[],27,Yes,,martinique,4,1,oui,francais,francais,Female,preAndPostAge8,"anglais, espagnol",non,FR,Chrome,Mac,800,1280,4.394933333333333,
113,condition1,blue_chair,"
bleu",1863,94,chair,[],27,Yes,,martinique,4,1,oui,francais,francais,Female,preAndPostAge8,"anglais, espagnol",non,FR,Chrome,Mac,800,1280,4.394933333333333,
113,condition1,white_scarf,"
blanc",2224,95,scarf,[],27,Yes,,martinique,4,1,oui,francais,francais,Female,preAndPostAge8,"anglais, espagnol",non,FR,Chrome,Mac,800,1280,4.394933333333333,
113,condition1,green_dresser,"
vert",1776,96,dresser,[],27,Yes,,martinique,4,1,oui,francais,francais,Female,preAndPostAge8,"anglais, espagnol",non,FR,Chrome,Mac,800,1280,4.394933333333333,
113,condition1,orange_binoculars,"
orange",3319,97,binoculars,[],27,Yes,,martinique,4,1,oui,francais,francais,Female,preAndPostAge8,"anglais, espagnol",non,FR,Chrome,Mac,800,1280,4.394933333333333,
113,condition1,black_helicopter,"
noir",2087,98,helicopter,[],27,Yes,,martinique,4,1,oui,francais,francais,Female,preAndPostAge8,"anglais, espagnol",non,FR,Chrome,Mac,800,1280,4.394933333333333,
113,condition1,red_shirt,"
rouge",1712,99,shirt,[],27,Yes,,martinique,4,1,oui,francais,francais,Female,preAndPostAge8,"anglais, espagnol",non,FR,Chrome,Mac,800,1280,4.394933333333333,
113,condition1,yellow_rug,"
jaune",1991,100,rug,[],27,Yes,,martinique,4,1,oui,francais,francais,Female,preAndPostAge8,"anglais, espagnol",non,FR,Chrome,Mac,800,1280,4.394933333333333,
113,condition1,red_sword,"
rouge",2128,101,sword,[],27,Yes,,martinique,4,1,oui,francais,francais,Female,preAndPostAge8,"anglais, espagnol",non,FR,Chrome,Mac,800,1280,4.394933333333333,
113,condition1,blue_phone,"
bleu",1696,102,phone,[],27,Yes,,martinique,4,1,oui,francais,francais,Female,preAndPostAge8,"anglais, espagnol",non,FR,Chrome,Mac,800,1280,4.394933333333333,
113,condition1,white_fryingpan,"
blanc",1760,103,fryingpan,[],27,Yes,,martinique,4,1,oui,francais,francais,Female,preAndPostAge8,"anglais, espagnol",non,FR,Chrome,Mac,800,1280,4.394933333333333,
113,condition1,white_armchair,"
blanc",2072,104,armchair,[],27,Yes,,martinique,4,1,oui,francais,francais,Female,preAndPostAge8,"anglais, espagnol",non,FR,Chrome,Mac,800,1280,4.394933333333333,
113,condition1,orange_airplane,"
orange",2080,105,airplane,[],27,Yes,,martinique,4,1,oui,francais,francais,Female,preAndPostAge8,"anglais, espagnol",non,FR,Chrome,Mac,800,1280,4.394933333333333,
113,condition1,blue_mouse,"
bleu",1720,106,mouse,[],27,Yes,,martinique,4,1,oui,francais,francais,Female,preAndPostAge8,"anglais, espagnol",non,FR,Chrome,Mac,800,1280,4.394933333333333,
152,condition1,orange_tie,orange,3397,2,tie,[],33,No,,"France, île-de-France",4,2,,Français,Français,Female,preAndPostAge8,Anglais,,FR,Chrome,Windows,1080,1920,4.3342,
152,condition1,green_umbrella,"
vert",2027,3,umbrella,[],33,No,,"France, île-de-France",4,2,,Français,Français,Female,preAndPostAge8,Anglais,,FR,Chrome,Windows,1080,1920,4.3342,
152,condition1,orange_binoculars,"
orange",2881,4,binoculars,[],33,No,,"France, île-de-France",4,2,,Français,Français,Female,preAndPostAge8,Anglais,,FR,Chrome,Windows,1080,1920,4.3342,
152,condition1,green_hammer,"
vert",1831,5,hammer,[],33,No,,"France, île-de-France",4,2,,Français,Français,Female,preAndPostAge8,Anglais,,FR,Chrome,Windows,1080,1920,4.3342,
152,condition1,white_lamp,"
blanc",2000,6,lamp,[],33,No,,"France, île-de-France",4,2,,Français,Français,Female,preAndPostAge8,Anglais,,FR,Chrome,Windows,1080,1920,4.3342,
152,condition1,blue_iron,"
bleu",2681,7,iron,[],33,No,,"France, île-de-France",4,2,,Français,Français,Female,preAndPostAge8,Anglais,,FR,Chrome,Windows,1080,1920,4.3342,
152,condition1,blue_butterfly,"
bleu",1454,8,butterfly,[],33,No,,"France, île-de-France",4,2,,Français,Français,Female,preAndPostAge8,Anglais,,FR,Chrome,Windows,1080,1920,4.3342,
152,condition1,green_ribbon,"
vert",1677,9,ribbon,[],33,No,,"France, île-de-France",4,2,,Français,Français,Female,preAndPostAge8,Anglais,,FR,Chrome,Windows,1080,1920,4.3342,
152,condition1,green_microscope,"
vert",1645,10,microscope,[],33,No,,"France, île-de-France",4,2,,Français,Français,Female,preAndPostAge8,Anglais,,FR,Chrome,Windows,1080,1920,4.3342,
152,condition1,green_bandaid,"
vert",1424,11,bandaid,[],33,No,,"France, île-de-France",4,2,,Français,Français,Female,preAndPostAge8,Anglais,,FR,Chrome,Windows,1080,1920,4.3342,
152,condition1,black_slipper,"
noir",1542,12,slipper,[],33,No,,"France, île-de-France",4,2,,Français,Français,Female,preAndPostAge8,Anglais,,FR,Chrome,Windows,1080,1920,4.3342,
152,condition1,green_lipstick,"
vert",1539,13,lipstick,[],33,No,,"France, île-de-France",4,2,,Français,Français,Female,preAndPostAge8,Anglais,,FR,Chrome,Windows,1080,1920,4.3342,
152,condition1,red_sword,"
rouge",1579,14,sword,[],33,No,,"France, île-de-France",4,2,,Français,Français,Female,preAndPostAge8,Anglais,,FR,Chrome,Windows,1080,1920,4.3342,
152,condition1,green_bench,"
vert",2326,15,bench,[],33,No,,"France, île-de-France",4,2,,Français,Français,Female,preAndPostAge8,Anglais,,FR,Chrome,Windows,1080,1920,4.3342,
152,condition1,yellow_balloon,"
jaune",2817,16,balloon,[],33,No,,"France, île-de-France",4,2,,Français,Français,Female,preAndPostAge8,Anglais,,FR,Chrome,Windows,1080,1920,4.3342,
152,condition1,yellow_cushion,"
jaune",1543,17,cushion,[],33,No,,"France, île-de-France",4,2,,Français,Français,Female,preAndPostAge8,Anglais,,FR,Chrome,Windows,1080,1920,4.3342,
152,condition1,red_clock,"
rouge",1460,18,clock,[],33,No,,"France, île-de-France",4,2,,Français,Français,Female,preAndPostAge8,Anglais,,FR,Chrome,Windows,1080,1920,4.3342,
152,condition1,black_basket,"
noir",2919,19,basket,[],33,No,,"France, île-de-France",4,2,,Français,Français,Female,preAndPostAge8,Anglais,,FR,Chrome,Windows,1080,1920,4.3342,
152,condition1,purple_purse,"
violet",2330,20,purse,[],33,No,,"France, île-de-France",4,2,,Français,Français,Female,preAndPostAge8,Anglais,,FR,Chrome,Windows,1080,1920,4.3342,
152,condition1,orange_lock,"
orange",2578,21,lock,[],33,No,,"France, île-de-France",4,2,,Français,Français,Female,preAndPostAge8,Anglais,,FR,Chrome,Windows,1080,1920,4.3342,
152,condition1,white_chair,"
blanc",2615,22,chair,[],33,No,,"France, île-de-France",4,2,,Français,Français,Female,preAndPostAge8,Anglais,,FR,Chrome,Windows,1080,1920,4.3342,
152,condition1,purple_dresser,"
violet",2175,23,dresser,[],33,No,,"France, île-de-France",4,2,,Français,Français,Female,preAndPostAge8,Anglais,,FR,Chrome,Windows,1080,1920,4.3342,
152,condition1,green_piano,"
vert",1630,24,piano,[],33,No,,"France, île-de-France",4,2,,Français,Français,Female,preAndPostAge8,Anglais,,FR,Chrome,Windows,1080,1920,4.3342,
152,condition1,yellow_flower,"
jaune",1661,25,flower,[],33,No,,"France, île-de-France",4,2,,Français,Français,Female,preAndPostAge8,Anglais,,FR,Chrome,Windows,1080,1920,4.3342,
152,condition1,blue_guitar,"
bleu",1722,26,guitar,[],33,No,,"France, île-de-France",4,2,,Français,Français,Female,preAndPostAge8,Anglais,,FR,Chrome,Windows,1080,1920,4.3342,
152,condition1,purple_shovel,"
violet",3647,27,shovel,[],33,No,,"France, île-de-France",4,2,,Français,Français,Female,preAndPostAge8,Anglais,,FR,Chrome,Windows,1080,1920,4.3342,
152,condition1,green_radio,"
vert",2443,28,radio,[],33,No,,"France, île-de-France",4,2,,Français,Français,Female,preAndPostAge8,Anglais,,FR,Chrome,Windows,1080,1920,4.3342,
152,condition1,white_ornament,"
blanc",2811,29,ornament,[],33,No,,"France, île-de-France",4,2,,Français,Français,Female,preAndPostAge8,Anglais,,FR,Chrome,Windows,1080,1920,4.3342,
152,condition1,white_coathanger,"
blanc",2110,30,coathanger,[],33,No,,"France, île-de-France",4,2,,Français,Français,Female,preAndPostAge8,Anglais,,FR,Chrome,Windows,1080,1920,4.3342,
152,condition1,white_ring,"
blanc",1493,31,ring,[],33,No,,"France, île-de-France",4,2,,Français,Français,Female,preAndPostAge8,Anglais,,FR,Chrome,Windows,1080,1920,4.3342,
152,condition1,orange_fork,"
orange",2378,32,fork,[],33,No,,"France, île-de-France",4,2,,Français,Français,Female,preAndPostAge8,Anglais,,FR,Chrome,Windows,1080,1920,4.3342,
152,condition1,yellow_billiardball,"
jaune",1575,33,billiardball,[],33,No,,"France, île-de-France",4,2,,Français,Français,Female,preAndPostAge8,Anglais,,FR,Chrome,Windows,1080,1920,4.3342,
152,condition1,blue_mouse,"
bleu",1799,34,mouse,[],33,No,,"France, île-de-France",4,2,,Français,Français,Female,preAndPostAge8,Anglais,,FR,Chrome,Windows,1080,1920,4.3342,
152,condition1,yellow_mask,"
jaune",2917,35,mask,[],33,No,,"France, île-de-France",4,2,,Français,Français,Female,preAndPostAge8,Anglais,,FR,Chrome,Windows,1080,1920,4.3342,
152,condition1,orange_drum,"
marron",4093,36,drum,[],33,No,,"France, île-de-France",4,2,,Français,Français,Female,preAndPostAge8,Anglais,,FR,Chrome,Windows,1080,1920,4.3342,
152,condition1,yellow_comb,"
jaune",1648,37,comb,[],33,No,,"France, île-de-France",4,2,,Français,Français,Female,preAndPostAge8,Anglais,,FR,Chrome,Windows,1080,1920,4.3342,
152,condition1,yellow_shirt,"
jaune",2691,38,shirt,[],33,No,,"France, île-de-France",4,2,,Français,Français,Female,preAndPostAge8,Anglais,,FR,Chrome,Windows,1080,1920,4.3342,
152,condition1,red_cap,"
rouge",1369,39,cap,[],33,No,,"France, île-de-France",4,2,,Français,Français,Female,preAndPostAge8,Anglais,,FR,Chrome,Windows,1080,1920,4.3342,
152,condition1,red_phone,"
rouge",1526,40,phone,[],33,No,,"France, île-de-France",4,2,,Français,Français,Female,preAndPostAge8,Anglais,,FR,Chrome,Windows,1080,1920,4.3342,
152,condition1,black_calendar,"
noir",2461,41,calendar,[],33,No,,"France, île-de-France",4,2,,Français,Français,Female,preAndPostAge8,Anglais,,FR,Chrome,Windows,1080,1920,4.3342,
152,condition1,orange_duck,"
orange",3060,42,duck,[],33,No,,"France, île-de-France",4,2,,Français,Français,Female,preAndPostAge8,Anglais,,FR,Chrome,Windows,1080,1920,4.3342,
152,condition1,green_bowl,"
vert",3444,43,bowl,[],33,No,,"France, île-de-France",4,2,,Français,Français,Female,preAndPostAge8,Anglais,,FR,Chrome,Windows,1080,1920,4.3342,
152,condition1,red_bucket,"
rouge",1501,44,bucket,[],33,No,,"France, île-de-France",4,2,,Français,Français,Female,preAndPostAge8,Anglais,,FR,Chrome,Windows,1080,1920,4.3342,
152,condition1,white_bracelet,"
blanc",1843,45,bracelet,[],33,No,,"France, île-de-France",4,2,,Français,Français,Female,preAndPostAge8,Anglais,,FR,Chrome,Windows,1080,1920,4.3342,
152,condition1,yellow_wallet,"
jaune",2514,46,wallet,[],33,No,,"France, île-de-France",4,2,,Français,Français,Female,preAndPostAge8,Anglais,,FR,Chrome,Windows,1080,1920,4.3342,
152,condition1,black_airplane,"
noir",2018,47,airplane,[],33,No,,"France, île-de-France",4,2,,Français,Français,Female,preAndPostAge8,Anglais,,FR,Chrome,Windows,1080,1920,4.3342,
152,condition1,blue_dustpan,"
bleu",2241,48,dustpan,[],33,No,,"France, île-de-France",4,2,,Français,Français,Female,preAndPostAge8,Anglais,,FR,Chrome,Windows,1080,1920,4.3342,
152,condition1,red_dress,"
rouge",3032,49,dress,[],33,No,,"France, île-de-France",4,2,,Français,Français,Female,preAndPostAge8,Anglais,,FR,Chrome,Windows,1080,1920,4.3342,
152,condition1,blue_binder,"
bleu",1750,50,binder,[],33,No,,"France, île-de-France",4,2,,Français,Français,Female,preAndPostAge8,Anglais,,FR,Chrome,Windows,1080,1920,4.3342,
152,condition1,black_whistle,"
noir",2599,51,whistle,[],33,No,,"France, île-de-France",4,2,,Français,Français,Female,preAndPostAge8,Anglais,,FR,Chrome,Windows,1080,1920,4.3342,
152,condition1,white_candle,"
blanc",1997,52,candle,[],33,No,,"France, île-de-France",4,2,,Français,Français,Female,preAndPostAge8,Anglais,,FR,Chrome,Windows,1080,1920,4.3342,
152,condition1,purple_robot,"
violet",3218,53,robot,[],33,No,,"France, île-de-France",4,2,,Français,Français,Female,preAndPostAge8,Anglais,,FR,Chrome,Windows,1080,1920,4.3342,
152,condition1,black_vase,"
noir",1809,54,vase,[],33,No,,"France, île-de-France",4,2,,Français,Français,Female,preAndPostAge8,Anglais,,FR,Chrome,Windows,1080,1920,4.3342,
152,condition1,black_luggage,"
noir",1561,55,luggage,[],33,No,,"France, île-de-France",4,2,,Français,Français,Female,preAndPostAge8,Anglais,,FR,Chrome,Windows,1080,1920,4.3342,
152,condition1,purple_die,"
violet",2201,56,die,[],33,No,,"France, île-de-France",4,2,,Français,Français,Female,preAndPostAge8,Anglais,,FR,Chrome,Windows,1080,1920,4.3342,
152,condition1,yellow_yarn,"
jaune",2383,57,yarn,[],33,No,,"France, île-de-France",4,2,,Français,Français,Female,preAndPostAge8,Anglais,,FR,Chrome,Windows,1080,1920,4.3342,
152,condition1,red_fence,"
rouge",1851,58,fence,[],33,No,,"France, île-de-France",4,2,,Français,Français,Female,preAndPostAge8,Anglais,,FR,Chrome,Windows,1080,1920,4.3342,
152,condition1,white_pencil,"
blanc",1704,59,pencil,[],33,No,,"France, île-de-France",4,2,,Français,Français,Female,preAndPostAge8,Anglais,,FR,Chrome,Windows,1080,1920,4.3342,
152,condition1,orange_truck,"
orange",2544,60,truck,[],33,No,,"France, île-de-France",4,2,,Français,Français,Female,preAndPostAge8,Anglais,,FR,Chrome,Windows,1080,1920,4.3342,
152,condition1,purple_cake,"
violet",2319,61,cake,[],33,No,,"France, île-de-France",4,2,,Français,Français,Female,preAndPostAge8,Anglais,,FR,Chrome,Windows,1080,1920,4.3342,
152,condition1,red_present,"
rouge",1794,62,present,[],33,No,,"France, île-de-France",4,2,,Français,Français,Female,preAndPostAge8,Anglais,,FR,Chrome,Windows,1080,1920,4.3342,
152,condition1,blue_scarf,"
bleu",1524,63,scarf,[],33,No,,"France, île-de-France",4,2,,Français,Français,Female,preAndPostAge8,Anglais,,FR,Chrome,Windows,1080,1920,4.3342,
152,condition1,white_table,"
blanc",1749,64,table,[],33,No,,"France, île-de-France",4,2,,Français,Français,Female,preAndPostAge8,Anglais,,FR,Chrome,Windows,1080,1920,4.3342,
152,condition1,white_book,"
blanc",1448,65,book,[],33,No,,"France, île-de-France",4,2,,Français,Français,Female,preAndPostAge8,Anglais,,FR,Chrome,Windows,1080,1920,4.3342,
152,condition1,orange_shell,"
orange",2539,66,shell,[],33,No,,"France, île-de-France",4,2,,Français,Français,Female,preAndPostAge8,Anglais,,FR,Chrome,Windows,1080,1920,4.3342,
152,condition1,red_notebook,"
rouge",1896,67,notebook,[],33,No,,"France, île-de-France",4,2,,Français,Français,Female,preAndPostAge8,Anglais,,FR,Chrome,Windows,1080,1920,4.3342,
152,condition1,white_bike,"
blanc",2721,68,bike,[],33,No,,"France, île-de-France",4,2,,Français,Français,Female,preAndPostAge8,Anglais,,FR,Chrome,Windows,1080,1920,4.3342,
152,condition1,purple_camera,violet,3108,69,camera,[],33,No,,"France, île-de-France",4,2,,Français,Français,Female,preAndPostAge8,Anglais,,FR,Chrome,Windows,1080,1920,4.3342,
152,condition1,black_bonbon,"
noir",3031,70,bonbon,[],33,No,,"France, île-de-France",4,2,,Français,Français,Female,preAndPostAge8,Anglais,,FR,Chrome,Windows,1080,1920,4.3342,
152,condition1,red_belt,"
rouge",1527,71,belt,[],33,No,,"France, île-de-France",4,2,,Français,Français,Female,preAndPostAge8,Anglais,,FR,Chrome,Windows,1080,1920,4.3342,
152,condition1,blue_switch,"
bleu",1539,72,switch,[],33,No,,"France, île-de-France",4,2,,Français,Français,Female,preAndPostAge8,Anglais,,FR,Chrome,Windows,1080,1920,4.3342,
152,condition1,red_calculator,"
rouge",2207,73,calculator,[],33,No,,"France, île-de-France",4,2,,Français,Français,Female,preAndPostAge8,Anglais,,FR,Chrome,Windows,1080,1920,4.3342,
152,condition1,white_fryingpan,"
blanc",2056,74,fryingpan,[],33,No,,"France, île-de-France",4,2,,Français,Français,Female,preAndPostAge8,Anglais,,FR,Chrome,Windows,1080,1920,4.3342,
152,condition1,purple_rope,"
violet",4021,75,rope,[],33,No,,"France, île-de-France",4,2,,Français,Français,Female,preAndPostAge8,Anglais,,FR,Chrome,Windows,1080,1920,4.3342,
152,condition1,blue_armchair,"
bleu",2246,76,armchair,[],33,No,,"France, île-de-France",4,2,,Français,Français,Female,preAndPostAge8,Anglais,,FR,Chrome,Windows,1080,1920,4.3342,
152,condition1,green_plate,"
vert",1899,77,plate,[],33,No,,"France, île-de-France",4,2,,Français,Français,Female,preAndPostAge8,Anglais,,FR,Chrome,Windows,1080,1920,4.3342,
152,condition1,purple_necklace,"
violet",1859,78,necklace,[],33,No,,"France, île-de-France",4,2,,Français,Français,Female,preAndPostAge8,Anglais,,FR,Chrome,Windows,1080,1920,4.3342,
152,condition1,green_box,"
vert",1615,79,box,[],33,No,,"France, île-de-France",4,2,,Français,Français,Female,preAndPostAge8,Anglais,,FR,Chrome,Windows,1080,1920,4.3342,
152,condition1,blue_ruler,"
bleu",1635,80,ruler,[],33,No,,"France, île-de-France",4,2,,Français,Français,Female,preAndPostAge8,Anglais,,FR,Chrome,Windows,1080,1920,4.3342,
152,condition1,green_knife,"
vert",1920,81,knife,[],33,No,,"France, île-de-France",4,2,,Français,Français,Female,preAndPostAge8,Anglais,,FR,Chrome,Windows,1080,1920,4.3342,
152,condition1,blue_shoe,"
bleu",2459,82,shoe,[],33,No,,"France, île-de-France",4,2,,Français,Français,Female,preAndPostAge8,Anglais,,FR,Chrome,Windows,1080,1920,4.3342,
152,condition1,white_door,"
blanc",2169,83,door,[],33,No,,"France, île-de-France",4,2,,Français,Français,Female,preAndPostAge8,Anglais,,FR,Chrome,Windows,1080,1920,4.3342,
152,condition1,white_bed,"
blanc",2577,84,bed,[],33,No,,"France, île-de-France",4,2,,Français,Français,Female,preAndPostAge8,Anglais,,FR,Chrome,Windows,1080,1920,4.3342,
152,condition1,black_tent,"
noir",2000,85,tent,[],33,No,,"France, île-de-France",4,2,,Français,Français,Female,preAndPostAge8,Anglais,,FR,Chrome,Windows,1080,1920,4.3342,
152,condition1,orange_fish,"
orange",2929,86,fish,[],33,No,,"France, île-de-France",4,2,,Français,Français,Female,preAndPostAge8,Anglais,,FR,Chrome,Windows,1080,1920,4.3342,
152,condition1,blue_key,"
bleu",2869,87,key,[],33,No,,"France, île-de-France",4,2,,Français,Français,Female,preAndPostAge8,Anglais,,FR,Chrome,Windows,1080,1920,4.3342,
152,condition1,black_boot,"
noir",2289,88,boot,[],33,No,,"France, île-de-France",4,2,,Français,Français,Female,preAndPostAge8,Anglais,,FR,Chrome,Windows,1080,1920,4.3342,
152,condition1,yellow_stapler,"
jaune",1608,89,stapler,[],33,No,,"France, île-de-France",4,2,,Français,Français,Female,preAndPostAge8,Anglais,,FR,Chrome,Windows,1080,1920,4.3342,
152,condition1,purple_screwdriver,"
violet",2057,90,screwdriver,[],33,No,,"France, île-de-France",4,2,,Français,Français,Female,preAndPostAge8,Anglais,,FR,Chrome,Windows,1080,1920,4.3342,
152,condition1,black_shield,"
noir",1955,91,shield,[],33,No,,"France, île-de-France",4,2,,Français,Français,Female,preAndPostAge8,Anglais,,FR,Chrome,Windows,1080,1920,4.3342,
152,condition1,black_razor,"
noir",1393,92,razor,[],33,No,,"France, île-de-France",4,2,,Français,Français,Female,preAndPostAge8,Anglais,,FR,Chrome,Windows,1080,1920,4.3342,
152,condition1,red_frame,"
rouge",2765,93,frame,[],33,No,,"France, île-de-France",4,2,,Français,Français,Female,preAndPostAge8,Anglais,,FR,Chrome,Windows,1080,1920,4.3342,
152,condition1,black_tv,"
noir",1791,94,tv,[],33,No,,"France, île-de-France",4,2,,Français,Français,Female,preAndPostAge8,Anglais,,FR,Chrome,Windows,1080,1920,4.3342,
152,condition1,purple_helicopter,"
violet",2719,95,helicopter,[],33,No,,"France, île-de-France",4,2,,Français,Français,Female,preAndPostAge8,Anglais,,FR,Chrome,Windows,1080,1920,4.3342,
152,condition1,red_rug,"
rouge",1845,96,rug,[],33,No,,"France, île-de-France",4,2,,Français,Français,Female,preAndPostAge8,Anglais,,FR,Chrome,Windows,1080,1920,4.3342,
152,condition1,orange_ladle,"
orange",2766,97,ladle,[],33,No,,"France, île-de-France",4,2,,Français,Français,Female,preAndPostAge8,Anglais,,FR,Chrome,Windows,1080,1920,4.3342,
152,condition1,white_napkin,"
blanc",3319,98,napkin,[],33,No,,"France, île-de-France",4,2,,Français,Français,Female,preAndPostAge8,Anglais,,FR,Chrome,Windows,1080,1920,4.3342,
152,condition1,purple_glove,"
violet",1986,99,glove,[],33,No,,"France, île-de-France",4,2,,Français,Français,Female,preAndPostAge8,Anglais,,FR,Chrome,Windows,1080,1920,4.3342,
152,condition1,purple_sock,"
violet",2028,100,sock,[],33,No,,"France, île-de-France",4,2,,Français,Français,Female,preAndPostAge8,Anglais,,FR,Chrome,Windows,1080,1920,4.3342,
152,condition1,yellow_magnifyingglass,"
jaune",1633,101,magnifyingglass,[],33,No,,"France, île-de-France",4,2,,Français,Français,Female,preAndPostAge8,Anglais,,FR,Chrome,Windows,1080,1920,4.3342,
152,condition1,green_spoon,"
vert",1831,102,spoon,[],33,No,,"France, île-de-France",4,2,,Français,Français,Female,preAndPostAge8,Anglais,,FR,Chrome,Windows,1080,1920,4.3342,
152,condition1,blue_crown,"
bleu",2054,103,crown,[],33,No,,"France, île-de-France",4,2,,Français,Français,Female,preAndPostAge8,Anglais,,FR,Chrome,Windows,1080,1920,4.3342,
152,condition1,blue_mug,"
bleu",1789,104,mug,[],33,No,,"France, île-de-France",4,2,,Français,Français,Female,preAndPostAge8,Anglais,,FR,Chrome,Windows,1080,1920,4.3342,
152,condition1,purple_remote,"
violet",2882,105,remote,[],33,No,,"France, île-de-France",4,2,,Français,Français,Female,preAndPostAge8,Anglais,,FR,Chrome,Windows,1080,1920,4.3342,
152,condition1,black_sponge,"
noir",2261,106,sponge,[],33,No,,"France, île-de-France",4,2,,Français,Français,Female,preAndPostAge8,Anglais,,FR,Chrome,Windows,1080,1920,4.3342,
126,condition1,white_wallet,blanc,5369,2,wallet,[],29,Yes,,,4,1,oui,français,frnçais,Male,postAge8,anglais,non,FR,Chrome,Windows,1080,1920,5.0821,
126,condition1,red_door,"
rouge",1748,3,door,[],29,Yes,,,4,1,oui,français,frnçais,Male,postAge8,anglais,non,FR,Chrome,Windows,1080,1920,5.0821,
126,condition1,purple_fish,"
violet",3242,4,fish,[],29,Yes,,,4,1,oui,français,frnçais,Male,postAge8,anglais,non,FR,Chrome,Windows,1080,1920,5.0821,
126,condition1,black_shield,"
noir",2363,5,shield,[],29,Yes,,,4,1,oui,français,frnçais,Male,postAge8,anglais,non,FR,Chrome,Windows,1080,1920,5.0821,
126,condition1,orange_duck,"
orange",2034,6,duck,[],29,Yes,,,4,1,oui,français,frnçais,Male,postAge8,anglais,non,FR,Chrome,Windows,1080,1920,5.0821,
126,condition1,red_napkin,"
rouge",1550,7,napkin,[],29,Yes,,,4,1,oui,français,frnçais,Male,postAge8,anglais,non,FR,Chrome,Windows,1080,1920,5.0821,
126,condition1,purple_necklace,"
violet",1913,8,necklace,[],29,Yes,,,4,1,oui,français,frnçais,Male,postAge8,anglais,non,FR,Chrome,Windows,1080,1920,5.0821,
126,condition1,orange_shell,"
orange",1816,9,shell,[],29,Yes,,,4,1,oui,français,frnçais,Male,postAge8,anglais,non,FR,Chrome,Windows,1080,1920,5.0821,
126,condition1,green_ladle,"
vert",2346,10,ladle,[],29,Yes,,,4,1,oui,français,frnçais,Male,postAge8,anglais,non,FR,Chrome,Windows,1080,1920,5.0821,
126,condition1,green_glove,"
vert",1543,11,glove,[],29,Yes,,,4,1,oui,français,frnçais,Male,postAge8,anglais,non,FR,Chrome,Windows,1080,1920,5.0821,
126,condition1,red_billiardball,"
rouge",1496,12,billiardball,[],29,Yes,,,4,1,oui,français,frnçais,Male,postAge8,anglais,non,FR,Chrome,Windows,1080,1920,5.0821,
126,condition1,purple_binoculars,"
violet",1770,13,binoculars,[],29,Yes,,,4,1,oui,français,frnçais,Male,postAge8,anglais,non,FR,Chrome,Windows,1080,1920,5.0821,
126,condition1,purple_dresser,"
violet",1826,14,dresser,[],29,Yes,,,4,1,oui,français,frnçais,Male,postAge8,anglais,non,FR,Chrome,Windows,1080,1920,5.0821,
126,condition1,yellow_key,"
jaune",1743,15,key,[],29,Yes,,,4,1,oui,français,frnçais,Male,postAge8,anglais,non,FR,Chrome,Windows,1080,1920,5.0821,
126,condition1,yellow_stapler,"
jaune",1581,16,stapler,[],29,Yes,,,4,1,oui,français,frnçais,Male,postAge8,anglais,non,FR,Chrome,Windows,1080,1920,5.0821,
126,condition1,green_robot,"
vert",1426,17,robot,[],29,Yes,,,4,1,oui,français,frnçais,Male,postAge8,anglais,non,FR,Chrome,Windows,1080,1920,5.0821,
126,condition1,yellow_scarf,"
jaune",1374,18,scarf,[],29,Yes,,,4,1,oui,français,frnçais,Male,postAge8,anglais,non,FR,Chrome,Windows,1080,1920,5.0821,
126,condition1,red_binder,"
rouge",1684,19,binder,[],29,Yes,,,4,1,oui,français,frnçais,Male,postAge8,anglais,non,FR,Chrome,Windows,1080,1920,5.0821,
126,condition1,white_calculator,"
blanc",2850,20,calculator,[],29,Yes,,,4,1,oui,français,frnçais,Male,postAge8,anglais,non,FR,Chrome,Windows,1080,1920,5.0821,
126,condition1,green_helicopter,"
vert",1377,21,helicopter,[],29,Yes,,,4,1,oui,français,frnçais,Male,postAge8,anglais,non,FR,Chrome,Windows,1080,1920,5.0821,
126,condition1,green_luggage,"
vert",1510,22,luggage,[],29,Yes,,,4,1,oui,français,frnçais,Male,postAge8,anglais,non,FR,Chrome,Windows,1080,1920,5.0821,
126,condition1,yellow_dress,"
jaune",4492,23,dress,[],29,Yes,,,4,1,oui,français,frnçais,Male,postAge8,anglais,non,FR,Chrome,Windows,1080,1920,5.0821,
126,condition1,black_truck,"
noir",3472,24,truck,[],29,Yes,,,4,1,oui,français,frnçais,Male,postAge8,anglais,non,FR,Chrome,Windows,1080,1920,5.0821,
126,condition1,orange_sock,"
violet",2084,25,sock,[],29,Yes,,,4,1,oui,français,frnçais,Male,postAge8,anglais,non,FR,Chrome,Windows,1080,1920,5.0821,
126,condition1,orange_tv,"
violet",1707,26,tv,[],29,Yes,,,4,1,oui,français,frnçais,Male,postAge8,anglais,non,FR,Chrome,Windows,1080,1920,5.0821,
126,condition1,white_balloon,"
blanc",1586,27,balloon,[],29,Yes,,,4,1,oui,français,frnçais,Male,postAge8,anglais,non,FR,Chrome,Windows,1080,1920,5.0821,
126,condition1,green_razor,"
vert",1374,28,razor,[],29,Yes,,,4,1,oui,français,frnçais,Male,postAge8,anglais,non,FR,Chrome,Windows,1080,1920,5.0821,
126,condition1,green_spoon,"
vert",1120,29,spoon,[],29,Yes,,,4,1,oui,français,frnçais,Male,postAge8,anglais,non,FR,Chrome,Windows,1080,1920,5.0821,
126,condition1,white_bike,"
blanc",2014,30,bike,[],29,Yes,,,4,1,oui,français,frnçais,Male,postAge8,anglais,non,FR,Chrome,Windows,1080,1920,5.0821,
126,condition1,green_bandaid,"
vert",1314,31,bandaid,[],29,Yes,,,4,1,oui,français,frnçais,Male,postAge8,anglais,non,FR,Chrome,Windows,1080,1920,5.0821,
126,condition1,black_vase,"
noir",1322,32,vase,[],29,Yes,,,4,1,oui,français,frnçais,Male,postAge8,anglais,non,FR,Chrome,Windows,1080,1920,5.0821,
126,condition1,blue_present,"
bleu",2132,33,present,[],29,Yes,,,4,1,oui,français,frnçais,Male,postAge8,anglais,non,FR,Chrome,Windows,1080,1920,5.0821,
126,condition1,yellow_cushion,"
jaune",2253,34,cushion,[],29,Yes,,,4,1,oui,français,frnçais,Male,postAge8,anglais,non,FR,Chrome,Windows,1080,1920,5.0821,
126,condition1,white_phone,"
blanc",2998,35,phone,[],29,Yes,,,4,1,oui,français,frnçais,Male,postAge8,anglais,non,FR,Chrome,Windows,1080,1920,5.0821,
126,condition1,white_belt,"
blanc",2503,36,belt,[],29,Yes,,,4,1,oui,français,frnçais,Male,postAge8,anglais,non,FR,Chrome,Windows,1080,1920,5.0821,
126,condition1,white_butterfly,"
blanc",2274,37,butterfly,[],29,Yes,,,4,1,oui,français,frnçais,Male,postAge8,anglais,non,FR,Chrome,Windows,1080,1920,5.0821,
126,condition1,orange_camera,"
orange",1877,38,camera,[],29,Yes,,,4,1,oui,français,frnçais,Male,postAge8,anglais,non,FR,Chrome,Windows,1080,1920,5.0821,
126,condition1,purple_box,"
violet",2179,39,box,[],29,Yes,,,4,1,oui,français,frnçais,Male,postAge8,anglais,non,FR,Chrome,Windows,1080,1920,5.0821,
126,condition1,yellow_sword,"
jaune",1618,40,sword,[],29,Yes,,,4,1,oui,français,frnçais,Male,postAge8,anglais,non,FR,Chrome,Windows,1080,1920,5.0821,
126,condition1,white_cap,"
blanc",1641,41,cap,[],29,Yes,,,4,1,oui,français,frnçais,Male,postAge8,anglais,non,FR,Chrome,Windows,1080,1920,5.0821,
126,condition1,blue_coathanger,"
bleu",1658,42,coathanger,[],29,Yes,,,4,1,oui,français,frnçais,Male,postAge8,anglais,non,FR,Chrome,Windows,1080,1920,5.0821,
126,condition1,orange_bowl,"
orange",1735,43,bowl,[],29,Yes,,,4,1,oui,français,frnçais,Male,postAge8,anglais,non,FR,Chrome,Windows,1080,1920,5.0821,
126,condition1,orange_drum,"
orange",1858,44,drum,[],29,Yes,,,4,1,oui,français,frnçais,Male,postAge8,anglais,non,FR,Chrome,Windows,1080,1920,5.0821,
126,condition1,yellow_fryingpan,"
jaune",1725,45,fryingpan,[],29,Yes,,,4,1,oui,français,frnçais,Male,postAge8,anglais,non,FR,Chrome,Windows,1080,1920,5.0821,
126,condition1,orange_bonbon,"
orange",2104,46,bonbon,[],29,Yes,,,4,1,oui,français,frnçais,Male,postAge8,anglais,non,FR,Chrome,Windows,1080,1920,5.0821,
126,condition1,black_remote,"
noir",1765,47,remote,[],29,Yes,,,4,1,oui,français,frnçais,Male,postAge8,anglais,non,FR,Chrome,Windows,1080,1920,5.0821,
126,condition1,white_notebook,"
blanc",3106,48,notebook,[],29,Yes,,,4,1,oui,français,frnçais,Male,postAge8,anglais,non,FR,Chrome,Windows,1080,1920,5.0821,
126,condition1,blue_yarn,"
bleu",1485,49,yarn,[],29,Yes,,,4,1,oui,français,frnçais,Male,postAge8,anglais,non,FR,Chrome,Windows,1080,1920,5.0821,
126,condition1,yellow_bracelet,"
jaune",1427,50,bracelet,[],29,Yes,,,4,1,oui,français,frnçais,Male,postAge8,anglais,non,FR,Chrome,Windows,1080,1920,5.0821,
126,condition1,blue_comb,"
bleu",1646,51,comb,[],29,Yes,,,4,1,oui,français,frnçais,Male,postAge8,anglais,non,FR,Chrome,Windows,1080,1920,5.0821,
126,condition1,white_fence,"
blanc",1568,52,fence,[],29,Yes,,,4,1,oui,français,frnçais,Male,postAge8,anglais,non,FR,Chrome,Windows,1080,1920,5.0821,
126,condition1,blue_iron,"
bleu",2123,53,iron,[],29,Yes,,,4,1,oui,français,frnçais,Male,postAge8,anglais,non,FR,Chrome,Windows,1080,1920,5.0821,
126,condition1,red_ring,"
rouge",1482,54,ring,[],29,Yes,,,4,1,oui,français,frnçais,Male,postAge8,anglais,non,FR,Chrome,Windows,1080,1920,5.0821,
126,condition1,black_lock,"
noir",1370,55,lock,[],29,Yes,,,4,1,oui,français,frnçais,Male,postAge8,anglais,non,FR,Chrome,Windows,1080,1920,5.0821,
126,condition1,white_chair,"
blanc",1576,56,chair,[],29,Yes,,,4,1,oui,français,frnçais,Male,postAge8,anglais,non,FR,Chrome,Windows,1080,1920,5.0821,
126,condition1,blue_crown,"
bleu",1462,57,crown,[],29,Yes,,,4,1,oui,français,frnçais,Male,postAge8,anglais,non,FR,Chrome,Windows,1080,1920,5.0821,
126,condition1,yellow_dustpan,"
jaune",1576,58,dustpan,[],29,Yes,,,4,1,oui,français,frnçais,Male,postAge8,anglais,non,FR,Chrome,Windows,1080,1920,5.0821,
126,condition1,red_mouse,"
rouge",1435,59,mouse,[],29,Yes,,,4,1,oui,français,frnçais,Male,postAge8,anglais,non,FR,Chrome,Windows,1080,1920,5.0821,
126,condition1,black_lipstick,"
noir",1443,60,lipstick,[],29,Yes,,,4,1,oui,français,frnçais,Male,postAge8,anglais,non,FR,Chrome,Windows,1080,1920,5.0821,
126,condition1,black_airplane,noir,2223,61,airplane,[],29,Yes,,,4,1,oui,français,frnçais,Male,postAge8,anglais,non,FR,Chrome,Windows,1080,1920,5.0821,
126,condition1,blue_ruler,"
bleu",1732,62,ruler,[],29,Yes,,,4,1,oui,français,frnçais,Male,postAge8,anglais,non,FR,Chrome,Windows,1080,1920,5.0821,
126,condition1,red_mug,"
rouge",2080,63,mug,[],29,Yes,,,4,1,oui,français,frnçais,Male,postAge8,anglais,non,FR,Chrome,Windows,1080,1920,5.0821,
126,condition1,blue_pencil,"
bleu",1731,64,pencil,[],29,Yes,,,4,1,oui,français,frnçais,Male,postAge8,anglais,non,FR,Chrome,Windows,1080,1920,5.0821,
126,condition1,purple_fork,"
violet",2359,65,fork,[],29,Yes,,,4,1,oui,français,frnçais,Male,postAge8,anglais,non,FR,Chrome,Windows,1080,1920,5.0821,
126,condition1,purple_cake,violet,2897,66,cake,[],29,Yes,,,4,1,oui,français,frnçais,Male,postAge8,anglais,non,FR,Chrome,Windows,1080,1920,5.0821,
126,condition1,black_umbrella,"
noir",1406,67,umbrella,[],29,Yes,,,4,1,oui,français,frnçais,Male,postAge8,anglais,non,FR,Chrome,Windows,1080,1920,5.0821,
126,condition1,black_calendar,"
noir",1558,68,calendar,[],29,Yes,,,4,1,oui,français,frnçais,Male,postAge8,anglais,non,FR,Chrome,Windows,1080,1920,5.0821,
126,condition1,green_rope,"
vert",1873,69,rope,[],29,Yes,,,4,1,oui,français,frnçais,Male,postAge8,anglais,non,FR,Chrome,Windows,1080,1920,5.0821,
126,condition1,white_frame,"
blanc",3203,70,frame,[],29,Yes,,,4,1,oui,français,frnçais,Male,postAge8,anglais,non,FR,Chrome,Windows,1080,1920,5.0821,
126,condition1,green_plate,"
vert",2932,71,plate,[],29,Yes,,,4,1,oui,français,frnçais,Male,postAge8,anglais,non,FR,Chrome,Windows,1080,1920,5.0821,
126,condition1,green_purse,"
vert",1475,72,purse,[],29,Yes,,,4,1,oui,français,frnçais,Male,postAge8,anglais,non,FR,Chrome,Windows,1080,1920,5.0821,
126,condition1,red_rug,"
rouge",1398,73,rug,[],29,Yes,,,4,1,oui,français,frnçais,Male,postAge8,anglais,non,FR,Chrome,Windows,1080,1920,5.0821,
126,condition1,yellow_shoe,"
jaune",1834,74,shoe,[],29,Yes,,,4,1,oui,français,frnçais,Male,postAge8,anglais,non,FR,Chrome,Windows,1080,1920,5.0821,
126,condition1,blue_bed,"
bleu",2073,75,bed,[],29,Yes,,,4,1,oui,français,frnçais,Male,postAge8,anglais,non,FR,Chrome,Windows,1080,1920,5.0821,
126,condition1,white_lamp,"
blanc",3345,76,lamp,[],29,Yes,,,4,1,oui,français,frnçais,Male,postAge8,anglais,non,FR,Chrome,Windows,1080,1920,5.0821,
126,condition1,black_tent,"
noir",1623,77,tent,[],29,Yes,,,4,1,oui,français,frnçais,Male,postAge8,anglais,non,FR,Chrome,Windows,1080,1920,5.0821,
126,condition1,white_guitar,"
blanc",2396,78,guitar,[],29,Yes,,,4,1,oui,français,frnçais,Male,postAge8,anglais,non,FR,Chrome,Windows,1080,1920,5.0821,
126,condition1,purple_knife,"
violet",1811,79,knife,[],29,Yes,,,4,1,oui,français,frnçais,Male,postAge8,anglais,non,FR,Chrome,Windows,1080,1920,5.0821,
126,condition1,white_armchair,"
blanc",1843,80,armchair,[],29,Yes,,,4,1,oui,français,frnçais,Male,postAge8,anglais,non,FR,Chrome,Windows,1080,1920,5.0821,
126,condition1,red_ornament,"
rouge",1486,81,ornament,[],29,Yes,,,4,1,oui,français,frnçais,Male,postAge8,anglais,non,FR,Chrome,Windows,1080,1920,5.0821,
126,condition1,black_microscope,"
noir",1943,82,microscope,[],29,Yes,,,4,1,oui,français,frnçais,Male,postAge8,anglais,non,FR,Chrome,Windows,1080,1920,5.0821,
126,condition1,yellow_shirt,"
jaune",1709,83,shirt,[],29,Yes,,,4,1,oui,français,frnçais,Male,postAge8,anglais,non,FR,Chrome,Windows,1080,1920,5.0821,
126,condition1,black_die,"
noir",1299,84,die,[],29,Yes,,,4,1,oui,français,frnçais,Male,postAge8,anglais,non,FR,Chrome,Windows,1080,1920,5.0821,
126,condition1,orange_piano,"
marron",5875,85,piano,[],29,Yes,,,4,1,oui,français,frnçais,Male,postAge8,anglais,non,FR,Chrome,Windows,1080,1920,5.0821,
126,condition1,black_tie,"
noir",1524,86,tie,[],29,Yes,,,4,1,oui,français,frnçais,Male,postAge8,anglais,non,FR,Chrome,Windows,1080,1920,5.0821,
126,condition1,yellow_mask,"
jaune",2315,87,mask,[],29,Yes,,,4,1,oui,français,frnçais,Male,postAge8,anglais,non,FR,Chrome,Windows,1080,1920,5.0821,
126,condition1,white_switch,"
blanc",3367,88,switch,[],29,Yes,,,4,1,oui,français,frnçais,Male,postAge8,anglais,non,FR,Chrome,Windows,1080,1920,5.0821,
126,condition1,black_bench,"
noir",1493,89,bench,[],29,Yes,,,4,1,oui,français,frnçais,Male,postAge8,anglais,non,FR,Chrome,Windows,1080,1920,5.0821,
126,condition1,purple_slipper,violet,2503,90,slipper,[],29,Yes,,,4,1,oui,français,frnçais,Male,postAge8,anglais,non,FR,Chrome,Windows,1080,1920,5.0821,
126,condition1,orange_radio,"
orange",2053,91,radio,[],29,Yes,,,4,1,oui,français,frnçais,Male,postAge8,anglais,non,FR,Chrome,Windows,1080,1920,5.0821,
126,condition1,purple_hammer,violet,2577,92,hammer,[],29,Yes,,,4,1,oui,français,frnçais,Male,postAge8,anglais,non,FR,Chrome,Windows,1080,1920,5.0821,
126,condition1,red_clock,"
rouge",1591,93,clock,[],29,Yes,,,4,1,oui,français,frnçais,Male,postAge8,anglais,non,FR,Chrome,Windows,1080,1920,5.0821,
126,condition1,blue_bucket,"
bleu",1732,94,bucket,[],29,Yes,,,4,1,oui,français,frnçais,Male,postAge8,anglais,non,FR,Chrome,Windows,1080,1920,5.0821,
126,condition1,yellow_flower,"
jaune",1704,95,flower,[],29,Yes,,,4,1,oui,français,frnçais,Male,postAge8,anglais,non,FR,Chrome,Windows,1080,1920,5.0821,
126,condition1,black_shovel,noir,2710,96,shovel,[],29,Yes,,,4,1,oui,français,frnçais,Male,postAge8,anglais,non,FR,Chrome,Windows,1080,1920,5.0821,
126,condition1,black_whistle,"
noir",1926,97,whistle,[],29,Yes,,,4,1,oui,français,frnçais,Male,postAge8,anglais,non,FR,Chrome,Windows,1080,1920,5.0821,
126,condition1,red_table,"
rouge",1751,98,table,[],29,Yes,,,4,1,oui,français,frnçais,Male,postAge8,anglais,non,FR,Chrome,Windows,1080,1920,5.0821,
126,condition1,black_ribbon,"
noir",1834,99,ribbon,[],29,Yes,,,4,1,oui,français,frnçais,Male,postAge8,anglais,non,FR,Chrome,Windows,1080,1920,5.0821,
126,condition1,blue_magnifyingglass,"
bleu",1622,100,magnifyingglass,[],29,Yes,,,4,1,oui,français,frnçais,Male,postAge8,anglais,non,FR,Chrome,Windows,1080,1920,5.0821,
126,condition1,green_basket,"
vert",3378,101,basket,[],29,Yes,,,4,1,oui,français,frnçais,Male,postAge8,anglais,non,FR,Chrome,Windows,1080,1920,5.0821,
126,condition1,red_book,"
rouge",1474,102,book,[],29,Yes,,,4,1,oui,français,frnçais,Male,postAge8,anglais,non,FR,Chrome,Windows,1080,1920,5.0821,
126,condition1,purple_sponge,"
violet",2380,103,sponge,[],29,Yes,,,4,1,oui,français,frnçais,Male,postAge8,anglais,non,FR,Chrome,Windows,1080,1920,5.0821,
126,condition1,red_candle,"
rouge",1635,104,candle,[],29,Yes,,,4,1,oui,français,frnçais,Male,postAge8,anglais,non,FR,Chrome,Windows,1080,1920,5.0821,
126,condition1,black_boot,"
noir",1386,105,boot,[],29,Yes,,,4,1,oui,français,frnçais,Male,postAge8,anglais,non,FR,Chrome,Windows,1080,1920,5.0821,
126,condition1,green_screwdriver,"
vert",1961,106,screwdriver,[],29,Yes,,,4,1,oui,français,frnçais,Male,postAge8,anglais,non,FR,Chrome,Windows,1080,1920,5.0821,
102,condition1,orange_binoculars,orange,5078,2,binoculars,[],26,Yes,Non,Ile de France,3,1,Oui,Français,Français,Male,preAndPostAge8,Anglais,Non,FR,Chrome,Windows,768,1366,7.63645,
102,condition1,black_shield,"
noir",3189,3,shield,[],26,Yes,Non,Ile de France,3,1,Oui,Français,Français,Male,preAndPostAge8,Anglais,Non,FR,Chrome,Windows,768,1366,7.63645,
102,condition1,purple_slipper,"
violet",2558,4,slipper,[],26,Yes,Non,Ile de France,3,1,Oui,Français,Français,Male,preAndPostAge8,Anglais,Non,FR,Chrome,Windows,768,1366,7.63645,
102,condition1,black_lipstick,"
noir",1874,5,lipstick,[],26,Yes,Non,Ile de France,3,1,Oui,Français,Français,Male,preAndPostAge8,Anglais,Non,FR,Chrome,Windows,768,1366,7.63645,
102,condition1,orange_bowl,"
orange",2747,6,bowl,[],26,Yes,Non,Ile de France,3,1,Oui,Français,Français,Male,preAndPostAge8,Anglais,Non,FR,Chrome,Windows,768,1366,7.63645,
102,condition1,yellow_shirt,"
jaune",3475,7,shirt,[],26,Yes,Non,Ile de France,3,1,Oui,Français,Français,Male,preAndPostAge8,Anglais,Non,FR,Chrome,Windows,768,1366,7.63645,
102,condition1,orange_bench,"
orange",3140,8,bench,[],26,Yes,Non,Ile de France,3,1,Oui,Français,Français,Male,preAndPostAge8,Anglais,Non,FR,Chrome,Windows,768,1366,7.63645,
102,condition1,black_spoon,"
noir",2292,9,spoon,[],26,Yes,Non,Ile de France,3,1,Oui,Français,Français,Male,preAndPostAge8,Anglais,Non,FR,Chrome,Windows,768,1366,7.63645,
102,condition1,purple_tie,"
violet",2443,10,tie,[],26,Yes,Non,Ile de France,3,1,Oui,Français,Français,Male,preAndPostAge8,Anglais,Non,FR,Chrome,Windows,768,1366,7.63645,
102,condition1,black_duck,"
noir",2192,11,duck,[],26,Yes,Non,Ile de France,3,1,Oui,Français,Français,Male,preAndPostAge8,Anglais,Non,FR,Chrome,Windows,768,1366,7.63645,
102,condition1,red_bracelet,"
rouge",2937,12,bracelet,[],26,Yes,Non,Ile de France,3,1,Oui,Français,Français,Male,preAndPostAge8,Anglais,Non,FR,Chrome,Windows,768,1366,7.63645,
102,condition1,white_candle,"
blanc",3245,13,candle,[],26,Yes,Non,Ile de France,3,1,Oui,Français,Français,Male,preAndPostAge8,Anglais,Non,FR,Chrome,Windows,768,1366,7.63645,
102,condition1,black_umbrella,"
noir",2208,14,umbrella,[],26,Yes,Non,Ile de France,3,1,Oui,Français,Français,Male,preAndPostAge8,Anglais,Non,FR,Chrome,Windows,768,1366,7.63645,
102,condition1,orange_box,"
orange",2111,15,box,[],26,Yes,Non,Ile de France,3,1,Oui,Français,Français,Male,preAndPostAge8,Anglais,Non,FR,Chrome,Windows,768,1366,7.63645,
102,condition1,yellow_napkin,"
jaune",1990,16,napkin,[],26,Yes,Non,Ile de France,3,1,Oui,Français,Français,Male,preAndPostAge8,Anglais,Non,FR,Chrome,Windows,768,1366,7.63645,
102,condition1,orange_microscope,"
orange",2711,17,microscope,[],26,Yes,Non,Ile de France,3,1,Oui,Français,Français,Male,preAndPostAge8,Anglais,Non,FR,Chrome,Windows,768,1366,7.63645,
102,condition1,purple_airplane,"
violet",3478,18,airplane,[],26,Yes,Non,Ile de France,3,1,Oui,Français,Français,Male,preAndPostAge8,Anglais,Non,FR,Chrome,Windows,768,1366,7.63645,
102,condition1,yellow_fryingpan,"
jaune",2647,19,fryingpan,[],26,Yes,Non,Ile de France,3,1,Oui,Français,Français,Male,preAndPostAge8,Anglais,Non,FR,Chrome,Windows,768,1366,7.63645,
102,condition1,white_dress,"
blanc",4009,20,dress,[],26,Yes,Non,Ile de France,3,1,Oui,Français,Français,Male,preAndPostAge8,Anglais,Non,FR,Chrome,Windows,768,1366,7.63645,
102,condition1,black_dresser,"
noir",1802,21,dresser,[],26,Yes,Non,Ile de France,3,1,Oui,Français,Français,Male,preAndPostAge8,Anglais,Non,FR,Chrome,Windows,768,1366,7.63645,
102,condition1,red_ring,"
orange",4028,22,ring,[],26,Yes,Non,Ile de France,3,1,Oui,Français,Français,Male,preAndPostAge8,Anglais,Non,FR,Chrome,Windows,768,1366,7.63645,
102,condition1,white_armchair,"
blanc",3560,23,armchair,[],26,Yes,Non,Ile de France,3,1,Oui,Français,Français,Male,preAndPostAge8,Anglais,Non,FR,Chrome,Windows,768,1366,7.63645,
102,condition1,white_sword,"
blanc",2594,24,sword,[],26,Yes,Non,Ile de France,3,1,Oui,Français,Français,Male,preAndPostAge8,Anglais,Non,FR,Chrome,Windows,768,1366,7.63645,
102,condition1,orange_sock,"
orange",2050,25,sock,[],26,Yes,Non,Ile de France,3,1,Oui,Français,Français,Male,preAndPostAge8,Anglais,Non,FR,Chrome,Windows,768,1366,7.63645,
102,condition1,red_book,"
rouge",2097,26,book,[],26,Yes,Non,Ile de France,3,1,Oui,Français,Français,Male,preAndPostAge8,Anglais,Non,FR,Chrome,Windows,768,1366,7.63645,
102,condition1,yellow_dustpan,"
jaune",6467,27,dustpan,[],26,Yes,Non,Ile de France,3,1,Oui,Français,Français,Male,preAndPostAge8,Anglais,Non,FR,Chrome,Windows,768,1366,7.63645,
102,condition1,white_mask,"
blanc",5054,28,mask,[],26,Yes,Non,Ile de France,3,1,Oui,Français,Français,Male,preAndPostAge8,Anglais,Non,FR,Chrome,Windows,768,1366,7.63645,
102,condition1,black_shovel,noir,4497,29,shovel,[],26,Yes,Non,Ile de France,3,1,Oui,Français,Français,Male,preAndPostAge8,Anglais,Non,FR,Chrome,Windows,768,1366,7.63645,
102,condition1,green_remote,"
vert",2972,30,remote,[],26,Yes,Non,Ile de France,3,1,Oui,Français,Français,Male,preAndPostAge8,Anglais,Non,FR,Chrome,Windows,768,1366,7.63645,
102,condition1,red_cushion,"
rouge",2400,31,cushion,[],26,Yes,Non,Ile de France,3,1,Oui,Français,Français,Male,preAndPostAge8,Anglais,Non,FR,Chrome,Windows,768,1366,7.63645,
102,condition1,white_chair,"
blanc",2811,32,chair,[],26,Yes,Non,Ile de France,3,1,Oui,Français,Français,Male,preAndPostAge8,Anglais,Non,FR,Chrome,Windows,768,1366,7.63645,
102,condition1,purple_robot,"
violet",2297,33,robot,[],26,Yes,Non,Ile de France,3,1,Oui,Français,Français,Male,preAndPostAge8,Anglais,Non,FR,Chrome,Windows,768,1366,7.63645,
102,condition1,white_present,"
blanc",2184,34,present,[],26,Yes,Non,Ile de France,3,1,Oui,Français,Français,Male,preAndPostAge8,Anglais,Non,FR,Chrome,Windows,768,1366,7.63645,
102,condition1,yellow_mouse,"
jaune",1793,35,mouse,[],26,Yes,Non,Ile de France,3,1,Oui,Français,Français,Male,preAndPostAge8,Anglais,Non,FR,Chrome,Windows,768,1366,7.63645,
102,condition1,orange_ribbon,"
orange",2288,36,ribbon,[],26,Yes,Non,Ile de France,3,1,Oui,Français,Français,Male,preAndPostAge8,Anglais,Non,FR,Chrome,Windows,768,1366,7.63645,
102,condition1,blue_yarn,"
bleu",4610,37,yarn,[],26,Yes,Non,Ile de France,3,1,Oui,Français,Français,Male,preAndPostAge8,Anglais,Non,FR,Chrome,Windows,768,1366,7.63645,
102,condition1,purple_glove,"
violet",2392,38,glove,[],26,Yes,Non,Ile de France,3,1,Oui,Français,Français,Male,preAndPostAge8,Anglais,Non,FR,Chrome,Windows,768,1366,7.63645,
102,condition1,black_drum,"
noir",2421,39,drum,[],26,Yes,Non,Ile de France,3,1,Oui,Français,Français,Male,preAndPostAge8,Anglais,Non,FR,Chrome,Windows,768,1366,7.63645,
102,condition1,blue_stapler,"
bleu",2202,40,stapler,[],26,Yes,Non,Ile de France,3,1,Oui,Français,Français,Male,preAndPostAge8,Anglais,Non,FR,Chrome,Windows,768,1366,7.63645,
102,condition1,black_razor,"
noir",1997,41,razor,[],26,Yes,Non,Ile de France,3,1,Oui,Français,Français,Male,preAndPostAge8,Anglais,Non,FR,Chrome,Windows,768,1366,7.63645,
102,condition1,red_iron,"
rouge",3803,42,iron,[],26,Yes,Non,Ile de France,3,1,Oui,Français,Français,Male,preAndPostAge8,Anglais,Non,FR,Chrome,Windows,768,1366,7.63645,
102,condition1,red_comb,"
rouge",3013,43,comb,[],26,Yes,Non,Ile de France,3,1,Oui,Français,Français,Male,preAndPostAge8,Anglais,Non,FR,Chrome,Windows,768,1366,7.63645,
102,condition1,red_phone,"
rouge",3446,44,phone,[],26,Yes,Non,Ile de France,3,1,Oui,Français,Français,Male,preAndPostAge8,Anglais,Non,FR,Chrome,Windows,768,1366,7.63645,
102,condition1,white_shoe,"
blanc",8748,45,shoe,[],26,Yes,Non,Ile de France,3,1,Oui,Français,Français,Male,preAndPostAge8,Anglais,Non,FR,Chrome,Windows,768,1366,7.63645,
102,condition1,purple_plate,"
violet",3816,46,plate,[],26,Yes,Non,Ile de France,3,1,Oui,Français,Français,Male,preAndPostAge8,Anglais,Non,FR,Chrome,Windows,768,1366,7.63645,
102,condition1,blue_switch,"
bleu",3528,47,switch,[],26,Yes,Non,Ile de France,3,1,Oui,Français,Français,Male,preAndPostAge8,Anglais,Non,FR,Chrome,Windows,768,1366,7.63645,
102,condition1,black_knife,"
noir",3070,48,knife,[],26,Yes,Non,Ile de France,3,1,Oui,Français,Français,Male,preAndPostAge8,Anglais,Non,FR,Chrome,Windows,768,1366,7.63645,
102,condition1,purple_necklace,"
violet",2205,49,necklace,[],26,Yes,Non,Ile de France,3,1,Oui,Français,Français,Male,preAndPostAge8,Anglais,Non,FR,Chrome,Windows,768,1366,7.63645,
102,condition1,red_billiardball,"
rouge",1675,50,billiardball,[],26,Yes,Non,Ile de France,3,1,Oui,Français,Français,Male,preAndPostAge8,Anglais,Non,FR,Chrome,Windows,768,1366,7.63645,
102,condition1,blue_lamp,"
bleu",1880,51,lamp,[],26,Yes,Non,Ile de France,3,1,Oui,Français,Français,Male,preAndPostAge8,Anglais,Non,FR,Chrome,Windows,768,1366,7.63645,
102,condition1,orange_ladle,"
orange",3254,52,ladle,[],26,Yes,Non,Ile de France,3,1,Oui,Français,Français,Male,preAndPostAge8,Anglais,Non,FR,Chrome,Windows,768,1366,7.63645,
102,condition1,black_fish,"
noir",4731,53,fish,[],26,Yes,Non,Ile de France,3,1,Oui,Français,Français,Male,preAndPostAge8,Anglais,Non,FR,Chrome,Windows,768,1366,7.63645,
102,condition1,green_vase,"
vert",2212,54,vase,[],26,Yes,Non,Ile de France,3,1,Oui,Français,Français,Male,preAndPostAge8,Anglais,Non,FR,Chrome,Windows,768,1366,7.63645,
102,condition1,green_basket,"
vert",2465,55,basket,[],26,Yes,Non,Ile de France,3,1,Oui,Français,Français,Male,preAndPostAge8,Anglais,Non,FR,Chrome,Windows,768,1366,7.63645,
102,condition1,white_butterfly,"
blanc",2061,56,butterfly,[],26,Yes,Non,Ile de France,3,1,Oui,Français,Français,Male,preAndPostAge8,Anglais,Non,FR,Chrome,Windows,768,1366,7.63645,
102,condition1,blue_key,"
bleu",1872,57,key,[],26,Yes,Non,Ile de France,3,1,Oui,Français,Français,Male,preAndPostAge8,Anglais,Non,FR,Chrome,Windows,768,1366,7.63645,
102,condition1,purple_piano,"
violet",2228,58,piano,[],26,Yes,Non,Ile de France,3,1,Oui,Français,Français,Male,preAndPostAge8,Anglais,Non,FR,Chrome,Windows,768,1366,7.63645,
102,condition1,blue_notebook,"
bleu",2947,59,notebook,[],26,Yes,Non,Ile de France,3,1,Oui,Français,Français,Male,preAndPostAge8,Anglais,Non,FR,Chrome,Windows,768,1366,7.63645,
102,condition1,orange_cake,"
orange",19994,60,cake,[],26,Yes,Non,Ile de France,3,1,Oui,Français,Français,Male,preAndPostAge8,Anglais,Non,FR,Chrome,Windows,768,1366,7.63645,
102,condition1,green_die,vert,4810,61,die,[],26,Yes,Non,Ile de France,3,1,Oui,Français,Français,Male,preAndPostAge8,Anglais,Non,FR,Chrome,Windows,768,1366,7.63645,
102,condition1,yellow_table,"
jaune",7706,62,table,[],26,Yes,Non,Ile de France,3,1,Oui,Français,Français,Male,preAndPostAge8,Anglais,Non,FR,Chrome,Windows,768,1366,7.63645,
102,condition1,blue_wallet,"
bleu",6361,63,wallet,[],26,Yes,Non,Ile de France,3,1,Oui,Français,Français,Male,preAndPostAge8,Anglais,Non,FR,Chrome,Windows,768,1366,7.63645,
102,condition1,blue_mug,"
bleu",3500,64,mug,[],26,Yes,Non,Ile de France,3,1,Oui,Français,Français,Male,preAndPostAge8,Anglais,Non,FR,Chrome,Windows,768,1366,7.63645,
102,condition1,purple_calendar,"
violet",4642,65,calendar,[],26,Yes,Non,Ile de France,3,1,Oui,Français,Français,Male,preAndPostAge8,Anglais,Non,FR,Chrome,Windows,768,1366,7.63645,
102,condition1,red_cap,"
rouge",4919,66,cap,[],26,Yes,Non,Ile de France,3,1,Oui,Français,Français,Male,preAndPostAge8,Anglais,Non,FR,Chrome,Windows,768,1366,7.63645,
102,condition1,orange_screwdriver,"
orange",4975,67,screwdriver,[],26,Yes,Non,Ile de France,3,1,Oui,Français,Français,Male,preAndPostAge8,Anglais,Non,FR,Chrome,Windows,768,1366,7.63645,
102,condition1,yellow_frame,"
jaune",5854,68,frame,[],26,Yes,Non,Ile de France,3,1,Oui,Français,Français,Male,preAndPostAge8,Anglais,Non,FR,Chrome,Windows,768,1366,7.63645,
102,condition1,white_crown,"
blanc",5436,69,crown,[],26,Yes,Non,Ile de France,3,1,Oui,Français,Français,Male,preAndPostAge8,Anglais,Non,FR,Chrome,Windows,768,1366,7.63645,
102,condition1,black_sponge,"
noir",4445,70,sponge,[],26,Yes,Non,Ile de France,3,1,Oui,Français,Français,Male,preAndPostAge8,Anglais,Non,FR,Chrome,Windows,768,1366,7.63645,
102,condition1,orange_hammer,"
orange",4441,71,hammer,[],26,Yes,Non,Ile de France,3,1,Oui,Français,Français,Male,preAndPostAge8,Anglais,Non,FR,Chrome,Windows,768,1366,7.63645,
102,condition1,red_binder,"
rouge",59012,72,binder,[],26,Yes,Non,Ile de France,3,1,Oui,Français,Français,Male,preAndPostAge8,Anglais,Non,FR,Chrome,Windows,768,1366,7.63645,
102,condition1,purple_rope,"
violet",4071,73,rope,[],26,Yes,Non,Ile de France,3,1,Oui,Français,Français,Male,preAndPostAge8,Anglais,Non,FR,Chrome,Windows,768,1366,7.63645,
102,condition1,black_lock,"
noir",1961,74,lock,[],26,Yes,Non,Ile de France,3,1,Oui,Français,Français,Male,preAndPostAge8,Anglais,Non,FR,Chrome,Windows,768,1366,7.63645,
102,condition1,purple_tv,"
violet",3029,75,tv,[],26,Yes,Non,Ile de France,3,1,Oui,Français,Français,Male,preAndPostAge8,Anglais,Non,FR,Chrome,Windows,768,1366,7.63645,
102,condition1,orange_tent,"
orange",2438,76,tent,[],26,Yes,Non,Ile de France,3,1,Oui,Français,Français,Male,preAndPostAge8,Anglais,Non,FR,Chrome,Windows,768,1366,7.63645,
102,condition1,yellow_scarf,"
jaune",1831,77,scarf,[],26,Yes,Non,Ile de France,3,1,Oui,Français,Français,Male,preAndPostAge8,Anglais,Non,FR,Chrome,Windows,768,1366,7.63645,
102,condition1,black_bonbon,"
noir",1698,78,bonbon,[],26,Yes,Non,Ile de France,3,1,Oui,Français,Français,Male,preAndPostAge8,Anglais,Non,FR,Chrome,Windows,768,1366,7.63645,
102,condition1,black_truck,"
noir",1911,79,truck,[],26,Yes,Non,Ile de France,3,1,Oui,Français,Français,Male,preAndPostAge8,Anglais,Non,FR,Chrome,Windows,768,1366,7.63645,
102,condition1,yellow_rug,"
jaune",1570,80,rug,[],26,Yes,Non,Ile de France,3,1,Oui,Français,Français,Male,preAndPostAge8,Anglais,Non,FR,Chrome,Windows,768,1366,7.63645,
102,condition1,purple_purse,"
violet",2107,81,purse,[],26,Yes,Non,Ile de France,3,1,Oui,Français,Français,Male,preAndPostAge8,Anglais,Non,FR,Chrome,Windows,768,1366,7.63645,
102,condition1,yellow_ornament,"
jaune",1561,82,ornament,[],26,Yes,Non,Ile de France,3,1,Oui,Français,Français,Male,preAndPostAge8,Anglais,Non,FR,Chrome,Windows,768,1366,7.63645,
102,condition1,orange_bandaid,"
orange",2148,83,bandaid,[],26,Yes,Non,Ile de France,3,1,Oui,Français,Français,Male,preAndPostAge8,Anglais,Non,FR,Chrome,Windows,768,1366,7.63645,
102,condition1,red_balloon,"
rouge",1932,84,balloon,[],26,Yes,Non,Ile de France,3,1,Oui,Français,Français,Male,preAndPostAge8,Anglais,Non,FR,Chrome,Windows,768,1366,7.63645,
102,condition1,red_flower,"
rouge",2126,85,flower,[],26,Yes,Non,Ile de France,3,1,Oui,Français,Français,Male,preAndPostAge8,Anglais,Non,FR,Chrome,Windows,768,1366,7.63645,
102,condition1,yellow_clock,"
jaune",1678,86,clock,[],26,Yes,Non,Ile de France,3,1,Oui,Français,Français,Male,preAndPostAge8,Anglais,Non,FR,Chrome,Windows,768,1366,7.63645,
102,condition1,red_coathanger,"
rouge",1811,87,coathanger,[],26,Yes,Non,Ile de France,3,1,Oui,Français,Français,Male,preAndPostAge8,Anglais,Non,FR,Chrome,Windows,768,1366,7.63645,
102,condition1,white_belt,"
blanc",2046,88,belt,[],26,Yes,Non,Ile de France,3,1,Oui,Français,Français,Male,preAndPostAge8,Anglais,Non,FR,Chrome,Windows,768,1366,7.63645,
102,condition1,black_whistle,"
noir",1794,89,whistle,[],26,Yes,Non,Ile de France,3,1,Oui,Français,Français,Male,preAndPostAge8,Anglais,Non,FR,Chrome,Windows,768,1366,7.63645,
102,condition1,purple_fork,"
violet",2469,90,fork,[],26,Yes,Non,Ile de France,3,1,Oui,Français,Français,Male,preAndPostAge8,Anglais,Non,FR,Chrome,Windows,768,1366,7.63645,
102,condition1,orange_shell,"
orange",2121,91,shell,[],26,Yes,Non,Ile de France,3,1,Oui,Français,Français,Male,preAndPostAge8,Anglais,Non,FR,Chrome,Windows,768,1366,7.63645,
102,condition1,white_bike,"
blanc",2181,92,bike,[],26,Yes,Non,Ile de France,3,1,Oui,Français,Français,Male,preAndPostAge8,Anglais,Non,FR,Chrome,Windows,768,1366,7.63645,
102,condition1,blue_guitar,"
bleu",1965,93,guitar,[],26,Yes,Non,Ile de France,3,1,Oui,Français,Français,Male,preAndPostAge8,Anglais,Non,FR,Chrome,Windows,768,1366,7.63645,
102,condition1,red_door,"
rouge",3108,94,door,[],26,Yes,Non,Ile de France,3,1,Oui,Français,Français,Male,preAndPostAge8,Anglais,Non,FR,Chrome,Windows,768,1366,7.63645,
102,condition1,purple_camera,"
violet",3927,95,camera,[],26,Yes,Non,Ile de France,3,1,Oui,Français,Français,Male,preAndPostAge8,Anglais,Non,FR,Chrome,Windows,768,1366,7.63645,
102,condition1,green_helicopter,"
vert",2484,96,helicopter,[],26,Yes,Non,Ile de France,3,1,Oui,Français,Français,Male,preAndPostAge8,Anglais,Non,FR,Chrome,Windows,768,1366,7.63645,
102,condition1,orange_boot,"
orange",3244,97,boot,[],26,Yes,Non,Ile de France,3,1,Oui,Français,Français,Male,preAndPostAge8,Anglais,Non,FR,Chrome,Windows,768,1366,7.63645,
102,condition1,yellow_calculator,"
jaune",7533,98,calculator,[],26,Yes,Non,Ile de France,3,1,Oui,Français,Français,Male,preAndPostAge8,Anglais,Non,FR,Chrome,Windows,768,1366,7.63645,
102,condition1,black_radio,"
noir",1620,99,radio,[],26,Yes,Non,Ile de France,3,1,Oui,Français,Français,Male,preAndPostAge8,Anglais,Non,FR,Chrome,Windows,768,1366,7.63645,
102,condition1,green_luggage,"
vert",2437,100,luggage,[],26,Yes,Non,Ile de France,3,1,Oui,Français,Français,Male,preAndPostAge8,Anglais,Non,FR,Chrome,Windows,768,1366,7.63645,
102,condition1,white_magnifyingglass,"
blanc",2370,101,magnifyingglass,[],26,Yes,Non,Ile de France,3,1,Oui,Français,Français,Male,preAndPostAge8,Anglais,Non,FR,Chrome,Windows,768,1366,7.63645,
102,condition1,red_bucket,"
rouge",4686,102,bucket,[],26,Yes,Non,Ile de France,3,1,Oui,Français,Français,Male,preAndPostAge8,Anglais,Non,FR,Chrome,Windows,768,1366,7.63645,
102,condition1,blue_bed,"
bleu",2098,103,bed,[],26,Yes,Non,Ile de France,3,1,Oui,Français,Français,Male,preAndPostAge8,Anglais,Non,FR,Chrome,Windows,768,1366,7.63645,
102,condition1,white_pencil,"
blanc",6987,104,pencil,[],26,Yes,Non,Ile de France,3,1,Oui,Français,Français,Male,preAndPostAge8,Anglais,Non,FR,Chrome,Windows,768,1366,7.63645,
102,condition1,blue_ruler,"
bleu",3646,105,ruler,[],26,Yes,Non,Ile de France,3,1,Oui,Français,Français,Male,preAndPostAge8,Anglais,Non,FR,Chrome,Windows,768,1366,7.63645,
102,condition1,red_fence,"
rouge",4460,106,fence,[],26,Yes,Non,Ile de France,3,1,Oui,Français,Français,Male,preAndPostAge8,Anglais,Non,FR,Chrome,Windows,768,1366,7.63645,
127,condition1,orange_shovel,orange,13733,2,shovel,[],25,Yes,,,4,2,oui,Français,Français,Female,preAndPostAge8,"Anglais, espagnol, arabe",non,FR,Chrome,Windows,1080,1920,4.458266666666667,
127,condition1,black_camera,"
noir",1767,3,camera,[],25,Yes,,,4,2,oui,Français,Français,Female,preAndPostAge8,"Anglais, espagnol, arabe",non,FR,Chrome,Windows,1080,1920,4.458266666666667,
127,condition1,green_whistle,"
vert",1672,4,whistle,[],25,Yes,,,4,2,oui,Français,Français,Female,preAndPostAge8,"Anglais, espagnol, arabe",non,FR,Chrome,Windows,1080,1920,4.458266666666667,
127,condition1,red_billiardball,"
rouge",1568,5,billiardball,[],25,Yes,,,4,2,oui,Français,Français,Female,preAndPostAge8,"Anglais, espagnol, arabe",non,FR,Chrome,Windows,1080,1920,4.458266666666667,
127,condition1,blue_bike,"
bleu",19415,6,bike,[],25,Yes,,,4,2,oui,Français,Français,Female,preAndPostAge8,"Anglais, espagnol, arabe",non,FR,Chrome,Windows,1080,1920,4.458266666666667,
127,condition1,white_ring,"
argenté",3136,7,ring,[],25,Yes,,,4,2,oui,Français,Français,Female,preAndPostAge8,"Anglais, espagnol, arabe",non,FR,Chrome,Windows,1080,1920,4.458266666666667,
127,condition1,white_crown,"
blanc",1767,8,crown,[],25,Yes,,,4,2,oui,Français,Français,Female,preAndPostAge8,"Anglais, espagnol, arabe",non,FR,Chrome,Windows,1080,1920,4.458266666666667,
127,condition1,black_box,"
noir",1783,9,box,[],25,Yes,,,4,2,oui,Français,Français,Female,preAndPostAge8,"Anglais, espagnol, arabe",non,FR,Chrome,Windows,1080,1920,4.458266666666667,
127,condition1,black_ladle,"
noir",1602,10,ladle,[],25,Yes,,,4,2,oui,Français,Français,Female,preAndPostAge8,"Anglais, espagnol, arabe",non,FR,Chrome,Windows,1080,1920,4.458266666666667,
127,condition1,purple_fork,"
violet",1991,11,fork,[],25,Yes,,,4,2,oui,Français,Français,Female,preAndPostAge8,"Anglais, espagnol, arabe",non,FR,Chrome,Windows,1080,1920,4.458266666666667,
127,condition1,orange_bonbon,"
orange",2079,12,bonbon,[],25,Yes,,,4,2,oui,Français,Français,Female,preAndPostAge8,"Anglais, espagnol, arabe",non,FR,Chrome,Windows,1080,1920,4.458266666666667,
127,condition1,blue_table,"
bleu",2584,13,table,[],25,Yes,,,4,2,oui,Français,Français,Female,preAndPostAge8,"Anglais, espagnol, arabe",non,FR,Chrome,Windows,1080,1920,4.458266666666667,
127,condition1,orange_rope,"
orange",7047,14,rope,[],25,Yes,,,4,2,oui,Français,Français,Female,preAndPostAge8,"Anglais, espagnol, arabe",non,FR,Chrome,Windows,1080,1920,4.458266666666667,
127,condition1,black_bandaid,"
noir",1386,15,bandaid,[],25,Yes,,,4,2,oui,Français,Français,Female,preAndPostAge8,"Anglais, espagnol, arabe",non,FR,Chrome,Windows,1080,1920,4.458266666666667,
127,condition1,yellow_fryingpan,"
jaune",1438,16,fryingpan,[],25,Yes,,,4,2,oui,Français,Français,Female,preAndPostAge8,"Anglais, espagnol, arabe",non,FR,Chrome,Windows,1080,1920,4.458266666666667,
127,condition1,green_razor,"
vert",1424,17,razor,[],25,Yes,,,4,2,oui,Français,Français,Female,preAndPostAge8,"Anglais, espagnol, arabe",non,FR,Chrome,Windows,1080,1920,4.458266666666667,
127,condition1,blue_ornament,"
bleu",3880,18,ornament,[],25,Yes,,,4,2,oui,Français,Français,Female,preAndPostAge8,"Anglais, espagnol, arabe",non,FR,Chrome,Windows,1080,1920,4.458266666666667,
127,condition1,orange_fish,"
orange",1880,19,fish,[],25,Yes,,,4,2,oui,Français,Français,Female,preAndPostAge8,"Anglais, espagnol, arabe",non,FR,Chrome,Windows,1080,1920,4.458266666666667,
127,condition1,black_calendar,"
noir",1384,20,calendar,[],25,Yes,,,4,2,oui,Français,Français,Female,preAndPostAge8,"Anglais, espagnol, arabe",non,FR,Chrome,Windows,1080,1920,4.458266666666667,
127,condition1,white_lamp,"
blanc",1871,21,lamp,[],25,Yes,,,4,2,oui,Français,Français,Female,preAndPostAge8,"Anglais, espagnol, arabe",non,FR,Chrome,Windows,1080,1920,4.458266666666667,
127,condition1,black_vase,"
noir",1504,22,vase,[],25,Yes,,,4,2,oui,Français,Français,Female,preAndPostAge8,"Anglais, espagnol, arabe",non,FR,Chrome,Windows,1080,1920,4.458266666666667,
127,condition1,white_cushion,"
blanc",1184,23,cushion,[],25,Yes,,,4,2,oui,Français,Français,Female,preAndPostAge8,"Anglais, espagnol, arabe",non,FR,Chrome,Windows,1080,1920,4.458266666666667,
127,condition1,yellow_bucket,"
jaune",1392,24,bucket,[],25,Yes,,,4,2,oui,Français,Français,Female,preAndPostAge8,"Anglais, espagnol, arabe",non,FR,Chrome,Windows,1080,1920,4.458266666666667,
127,condition1,black_necklace,"
noir",1304,25,necklace,[],25,Yes,,,4,2,oui,Français,Français,Female,preAndPostAge8,"Anglais, espagnol, arabe",non,FR,Chrome,Windows,1080,1920,4.458266666666667,
127,condition1,white_mouse,"
blanc",1768,26,mouse,[],25,Yes,,,4,2,oui,Français,Français,Female,preAndPostAge8,"Anglais, espagnol, arabe",non,FR,Chrome,Windows,1080,1920,4.458266666666667,
127,condition1,white_dress,"
blanc",2880,27,dress,[],25,Yes,,,4,2,oui,Français,Français,Female,preAndPostAge8,"Anglais, espagnol, arabe",non,FR,Chrome,Windows,1080,1920,4.458266666666667,
127,condition1,red_ruler,"
rouge",1592,28,ruler,[],25,Yes,,,4,2,oui,Français,Français,Female,preAndPostAge8,"Anglais, espagnol, arabe",non,FR,Chrome,Windows,1080,1920,4.458266666666667,
127,condition1,red_wallet,"
rouge",1616,29,wallet,[],25,Yes,,,4,2,oui,Français,Français,Female,preAndPostAge8,"Anglais, espagnol, arabe",non,FR,Chrome,Windows,1080,1920,4.458266666666667,
127,condition1,white_comb,"
blanc",1440,30,comb,[],25,Yes,,,4,2,oui,Français,Français,Female,preAndPostAge8,"Anglais, espagnol, arabe",non,FR,Chrome,Windows,1080,1920,4.458266666666667,
127,condition1,red_yarn,"
rouge",1336,31,yarn,[],25,Yes,,,4,2,oui,Français,Français,Female,preAndPostAge8,"Anglais, espagnol, arabe",non,FR,Chrome,Windows,1080,1920,4.458266666666667,
127,condition1,blue_bed,"
bleu",1440,32,bed,[],25,Yes,,,4,2,oui,Français,Français,Female,preAndPostAge8,"Anglais, espagnol, arabe",non,FR,Chrome,Windows,1080,1920,4.458266666666667,
127,condition1,orange_piano,"
marron",2848,33,piano,[],25,Yes,,,4,2,oui,Français,Français,Female,preAndPostAge8,"Anglais, espagnol, arabe",non,FR,Chrome,Windows,1080,1920,4.458266666666667,
127,condition1,yellow_rug,"
jaune",1472,34,rug,[],25,Yes,,,4,2,oui,Français,Français,Female,preAndPostAge8,"Anglais, espagnol, arabe",non,FR,Chrome,Windows,1080,1920,4.458266666666667,
127,condition1,blue_stapler,"
bleu",1409,35,stapler,[],25,Yes,,,4,2,oui,Français,Français,Female,preAndPostAge8,"Anglais, espagnol, arabe",non,FR,Chrome,Windows,1080,1920,4.458266666666667,
127,condition1,orange_helicopter,"
orange",1831,36,helicopter,[],25,Yes,,,4,2,oui,Français,Français,Female,preAndPostAge8,"Anglais, espagnol, arabe",non,FR,Chrome,Windows,1080,1920,4.458266666666667,
127,condition1,black_tent,"
noir",1945,37,tent,[],25,Yes,,,4,2,oui,Français,Français,Female,preAndPostAge8,"Anglais, espagnol, arabe",non,FR,Chrome,Windows,1080,1920,4.458266666666667,
127,condition1,green_shell,"
vert",1615,38,shell,[],25,Yes,,,4,2,oui,Français,Français,Female,preAndPostAge8,"Anglais, espagnol, arabe",non,FR,Chrome,Windows,1080,1920,4.458266666666667,
127,condition1,green_slipper,"
vert",1528,39,slipper,[],25,Yes,,,4,2,oui,Français,Français,Female,preAndPostAge8,"Anglais, espagnol, arabe",non,FR,Chrome,Windows,1080,1920,4.458266666666667,
127,condition1,yellow_cap,"
jaune",1248,40,cap,[],25,Yes,,,4,2,oui,Français,Français,Female,preAndPostAge8,"Anglais, espagnol, arabe",non,FR,Chrome,Windows,1080,1920,4.458266666666667,
127,condition1,purple_microscope,"
violet",2128,41,microscope,[],25,Yes,,,4,2,oui,Français,Français,Female,preAndPostAge8,"Anglais, espagnol, arabe",non,FR,Chrome,Windows,1080,1920,4.458266666666667,
127,condition1,blue_butterfly,"
bleu",1464,42,butterfly,[],25,Yes,,,4,2,oui,Français,Français,Female,preAndPostAge8,"Anglais, espagnol, arabe",non,FR,Chrome,Windows,1080,1920,4.458266666666667,
127,condition1,green_cake,"
vert",1672,43,cake,[],25,Yes,,,4,2,oui,Français,Français,Female,preAndPostAge8,"Anglais, espagnol, arabe",non,FR,Chrome,Windows,1080,1920,4.458266666666667,
127,condition1,green_binoculars,"
vert",1136,44,binoculars,[],25,Yes,,,4,2,oui,Français,Français,Female,preAndPostAge8,"Anglais, espagnol, arabe",non,FR,Chrome,Windows,1080,1920,4.458266666666667,
127,condition1,green_die,"
vert",1114,45,die,[],25,Yes,,,4,2,oui,Français,Français,Female,preAndPostAge8,"Anglais, espagnol, arabe",non,FR,Chrome,Windows,1080,1920,4.458266666666667,
127,condition1,white_dustpan,"
blanc",1582,46,dustpan,[],25,Yes,,,4,2,oui,Français,Français,Female,preAndPostAge8,"Anglais, espagnol, arabe",non,FR,Chrome,Windows,1080,1920,4.458266666666667,
127,condition1,blue_fence,"
bleu",1440,47,fence,[],25,Yes,,,4,2,oui,Français,Français,Female,preAndPostAge8,"Anglais, espagnol, arabe",non,FR,Chrome,Windows,1080,1920,4.458266666666667,
127,condition1,white_coathanger,"
blanc",1520,48,coathanger,[],25,Yes,,,4,2,oui,Français,Français,Female,preAndPostAge8,"Anglais, espagnol, arabe",non,FR,Chrome,Windows,1080,1920,4.458266666666667,
127,condition1,orange_sponge,"
orange et noir",2912,49,sponge,[],25,Yes,,,4,2,oui,Français,Français,Female,preAndPostAge8,"Anglais, espagnol, arabe",non,FR,Chrome,Windows,1080,1920,4.458266666666667,
127,condition1,yellow_pencil,"
jaune",1584,50,pencil,[],25,Yes,,,4,2,oui,Français,Français,Female,preAndPostAge8,"Anglais, espagnol, arabe",non,FR,Chrome,Windows,1080,1920,4.458266666666667,
127,condition1,white_present,"
blanc",1312,51,present,[],25,Yes,,,4,2,oui,Français,Français,Female,preAndPostAge8,"Anglais, espagnol, arabe",non,FR,Chrome,Windows,1080,1920,4.458266666666667,
127,condition1,black_spoon,"
noir",1560,52,spoon,[],25,Yes,,,4,2,oui,Français,Français,Female,preAndPostAge8,"Anglais, espagnol, arabe",non,FR,Chrome,Windows,1080,1920,4.458266666666667,
127,condition1,yellow_candle,"
jaune",1144,53,candle,[],25,Yes,,,4,2,oui,Français,Français,Female,preAndPostAge8,"Anglais, espagnol, arabe",non,FR,Chrome,Windows,1080,1920,4.458266666666667,
127,condition1,orange_bench,"
marron",2112,54,bench,[],25,Yes,,,4,2,oui,Français,Français,Female,preAndPostAge8,"Anglais, espagnol, arabe",non,FR,Chrome,Windows,1080,1920,4.458266666666667,
127,condition1,white_binder,"
blanc",1864,55,binder,[],25,Yes,,,4,2,oui,Français,Français,Female,preAndPostAge8,"Anglais, espagnol, arabe",non,FR,Chrome,Windows,1080,1920,4.458266666666667,
127,condition1,orange_luggage,"
orange",2064,56,luggage,[],25,Yes,,,4,2,oui,Français,Français,Female,preAndPostAge8,"Anglais, espagnol, arabe",non,FR,Chrome,Windows,1080,1920,4.458266666666667,
127,condition1,white_armchair,"
blanc",2448,57,armchair,[],25,Yes,,,4,2,oui,Français,Français,Female,preAndPostAge8,"Anglais, espagnol, arabe",non,FR,Chrome,Windows,1080,1920,4.458266666666667,
127,condition1,green_tv,"
vert",1624,58,tv,[],25,Yes,,,4,2,oui,Français,Français,Female,preAndPostAge8,"Anglais, espagnol, arabe",non,FR,Chrome,Windows,1080,1920,4.458266666666667,
127,condition1,white_flower,"
blanc",1337,59,flower,[],25,Yes,,,4,2,oui,Français,Français,Female,preAndPostAge8,"Anglais, espagnol, arabe",non,FR,Chrome,Windows,1080,1920,4.458266666666667,
127,condition1,orange_purse,"
camel",2775,60,purse,[],25,Yes,,,4,2,oui,Français,Français,Female,preAndPostAge8,"Anglais, espagnol, arabe",non,FR,Chrome,Windows,1080,1920,4.458266666666667,
127,condition1,green_lipstick,"
vert",2209,61,lipstick,[],25,Yes,,,4,2,oui,Français,Français,Female,preAndPostAge8,"Anglais, espagnol, arabe",non,FR,Chrome,Windows,1080,1920,4.458266666666667,
127,condition1,orange_dresser,"
orange",2759,62,dresser,[],25,Yes,,,4,2,oui,Français,Français,Female,preAndPostAge8,"Anglais, espagnol, arabe",non,FR,Chrome,Windows,1080,1920,4.458266666666667,
127,condition1,orange_bowl,"
orange",1951,63,bowl,[],25,Yes,,,4,2,oui,Français,Français,Female,preAndPostAge8,"Anglais, espagnol, arabe",non,FR,Chrome,Windows,1080,1920,4.458266666666667,
127,condition1,red_chair,"
marron",2792,64,chair,[],25,Yes,,,4,2,oui,Français,Français,Female,preAndPostAge8,"Anglais, espagnol, arabe",non,FR,Chrome,Windows,1080,1920,4.458266666666667,
127,condition1,black_airplane,"
noir",1391,65,airplane,[],25,Yes,,,4,2,oui,Français,Français,Female,preAndPostAge8,"Anglais, espagnol, arabe",non,FR,Chrome,Windows,1080,1920,4.458266666666667,
127,condition1,orange_hammer,"
orange",1649,66,hammer,[],25,Yes,,,4,2,oui,Français,Français,Female,preAndPostAge8,"Anglais, espagnol, arabe",non,FR,Chrome,Windows,1080,1920,4.458266666666667,
127,condition1,blue_bracelet,"
bleu",1343,67,bracelet,[],25,Yes,,,4,2,oui,Français,Français,Female,preAndPostAge8,"Anglais, espagnol, arabe",non,FR,Chrome,Windows,1080,1920,4.458266666666667,
127,condition1,white_frame,"
blanc",1792,68,frame,[],25,Yes,,,4,2,oui,Français,Français,Female,preAndPostAge8,"Anglais, espagnol, arabe",non,FR,Chrome,Windows,1080,1920,4.458266666666667,
127,condition1,black_basket,"
noir",1920,69,basket,[],25,Yes,,,4,2,oui,Français,Français,Female,preAndPostAge8,"Anglais, espagnol, arabe",non,FR,Chrome,Windows,1080,1920,4.458266666666667,
127,condition1,orange_radio,"
orange",2182,70,radio,[],25,Yes,,,4,2,oui,Français,Français,Female,preAndPostAge8,"Anglais, espagnol, arabe",non,FR,Chrome,Windows,1080,1920,4.458266666666667,
127,condition1,yellow_phone,"
jaune",2767,71,phone,[],25,Yes,,,4,2,oui,Français,Français,Female,preAndPostAge8,"Anglais, espagnol, arabe",non,FR,Chrome,Windows,1080,1920,4.458266666666667,
127,condition1,blue_book,"
bleu",1503,72,book,[],25,Yes,,,4,2,oui,Français,Français,Female,preAndPostAge8,"Anglais, espagnol, arabe",non,FR,Chrome,Windows,1080,1920,4.458266666666667,
127,condition1,yellow_sword,"
jaune",1560,73,sword,[],25,Yes,,,4,2,oui,Français,Français,Female,preAndPostAge8,"Anglais, espagnol, arabe",non,FR,Chrome,Windows,1080,1920,4.458266666666667,
127,condition1,red_scarf,"
rouge",1855,74,scarf,[],25,Yes,,,4,2,oui,Français,Français,Female,preAndPostAge8,"Anglais, espagnol, arabe",non,FR,Chrome,Windows,1080,1920,4.458266666666667,
127,condition1,blue_mug,"
bleu",1463,75,mug,[],25,Yes,,,4,2,oui,Français,Français,Female,preAndPostAge8,"Anglais, espagnol, arabe",non,FR,Chrome,Windows,1080,1920,4.458266666666667,
127,condition1,white_door,"
blanc",2279,76,door,[],25,Yes,,,4,2,oui,Français,Français,Female,preAndPostAge8,"Anglais, espagnol, arabe",non,FR,Chrome,Windows,1080,1920,4.458266666666667,
127,condition1,yellow_magnifyingglass,"
jaune",1353,77,magnifyingglass,[],25,Yes,,,4,2,oui,Français,Français,Female,preAndPostAge8,"Anglais, espagnol, arabe",non,FR,Chrome,Windows,1080,1920,4.458266666666667,
127,condition1,green_ribbon,"
vert",1399,78,ribbon,[],25,Yes,,,4,2,oui,Français,Français,Female,preAndPostAge8,"Anglais, espagnol, arabe",non,FR,Chrome,Windows,1080,1920,4.458266666666667,
127,condition1,white_mask,"
blanc",3303,79,mask,[],25,Yes,,,4,2,oui,Français,Français,Female,preAndPostAge8,"Anglais, espagnol, arabe",non,FR,Chrome,Windows,1080,1920,4.458266666666667,
127,condition1,blue_calculator,"
bleu",1625,80,calculator,[],25,Yes,,,4,2,oui,Français,Français,Female,preAndPostAge8,"Anglais, espagnol, arabe",non,FR,Chrome,Windows,1080,1920,4.458266666666667,
127,condition1,red_key,"
rouge",1680,81,key,[],25,Yes,,,4,2,oui,Français,Français,Female,preAndPostAge8,"Anglais, espagnol, arabe",non,FR,Chrome,Windows,1080,1920,4.458266666666667,
127,condition1,purple_sock,"
violet",2384,82,sock,[],25,Yes,,,4,2,oui,Français,Français,Female,preAndPostAge8,"Anglais, espagnol, arabe",non,FR,Chrome,Windows,1080,1920,4.458266666666667,
127,condition1,yellow_napkin,"
jaune",1391,83,napkin,[],25,Yes,,,4,2,oui,Français,Français,Female,preAndPostAge8,"Anglais, espagnol, arabe",non,FR,Chrome,Windows,1080,1920,4.458266666666667,
127,condition1,green_robot,"
vert",1527,84,robot,[],25,Yes,,,4,2,oui,Français,Français,Female,preAndPostAge8,"Anglais, espagnol, arabe",non,FR,Chrome,Windows,1080,1920,4.458266666666667,
127,condition1,green_duck,"
vert",1455,85,duck,[],25,Yes,,,4,2,oui,Français,Français,Female,preAndPostAge8,"Anglais, espagnol, arabe",non,FR,Chrome,Windows,1080,1920,4.458266666666667,
127,condition1,green_plate,"
vert",1319,86,plate,[],25,Yes,,,4,2,oui,Français,Français,Female,preAndPostAge8,"Anglais, espagnol, arabe",non,FR,Chrome,Windows,1080,1920,4.458266666666667,
127,condition1,orange_knife,"
orange",2511,87,knife,[],25,Yes,,,4,2,oui,Français,Français,Female,preAndPostAge8,"Anglais, espagnol, arabe",non,FR,Chrome,Windows,1080,1920,4.458266666666667,
127,condition1,white_switch,"
blanc",1152,88,switch,[],25,Yes,,,4,2,oui,Français,Français,Female,preAndPostAge8,"Anglais, espagnol, arabe",non,FR,Chrome,Windows,1080,1920,4.458266666666667,
127,condition1,purple_remote,"
violet",1808,89,remote,[],25,Yes,,,4,2,oui,Français,Français,Female,preAndPostAge8,"Anglais, espagnol, arabe",non,FR,Chrome,Windows,1080,1920,4.458266666666667,
127,condition1,purple_shield,"
violet",1872,90,shield,[],25,Yes,,,4,2,oui,Français,Français,Female,preAndPostAge8,"Anglais, espagnol, arabe",non,FR,Chrome,Windows,1080,1920,4.458266666666667,
127,condition1,green_tie,"
vert",2120,91,tie,[],25,Yes,,,4,2,oui,Français,Français,Female,preAndPostAge8,"Anglais, espagnol, arabe",non,FR,Chrome,Windows,1080,1920,4.458266666666667,
127,condition1,green_drum,"
vert",1929,92,drum,[],25,Yes,,,4,2,oui,Français,Français,Female,preAndPostAge8,"Anglais, espagnol, arabe",non,FR,Chrome,Windows,1080,1920,4.458266666666667,
127,condition1,white_shirt,"
blanc",2079,93,shirt,[],25,Yes,,,4,2,oui,Français,Français,Female,preAndPostAge8,"Anglais, espagnol, arabe",non,FR,Chrome,Windows,1080,1920,4.458266666666667,
127,condition1,red_guitar,"
rouge",2223,94,guitar,[],25,Yes,,,4,2,oui,Français,Français,Female,preAndPostAge8,"Anglais, espagnol, arabe",non,FR,Chrome,Windows,1080,1920,4.458266666666667,
127,condition1,yellow_belt,"
jaune",1442,95,belt,[],25,Yes,,,4,2,oui,Français,Français,Female,preAndPostAge8,"Anglais, espagnol, arabe",non,FR,Chrome,Windows,1080,1920,4.458266666666667,
127,condition1,red_balloon,"
rouge",1302,96,balloon,[],25,Yes,,,4,2,oui,Français,Français,Female,preAndPostAge8,"Anglais, espagnol, arabe",non,FR,Chrome,Windows,1080,1920,4.458266666666667,
127,condition1,white_notebook,"
blanc",1560,97,notebook,[],25,Yes,,,4,2,oui,Français,Français,Female,preAndPostAge8,"Anglais, espagnol, arabe",non,FR,Chrome,Windows,1080,1920,4.458266666666667,
127,condition1,purple_boot,"
violet",1800,98,boot,[],25,Yes,,,4,2,oui,Français,Français,Female,preAndPostAge8,"Anglais, espagnol, arabe",non,FR,Chrome,Windows,1080,1920,4.458266666666667,
127,condition1,black_lock,"
noir",1936,99,lock,[],25,Yes,,,4,2,oui,Français,Français,Female,preAndPostAge8,"Anglais, espagnol, arabe",non,FR,Chrome,Windows,1080,1920,4.458266666666667,
127,condition1,green_screwdriver,"
vert",1944,100,screwdriver,[],25,Yes,,,4,2,oui,Français,Français,Female,preAndPostAge8,"Anglais, espagnol, arabe",non,FR,Chrome,Windows,1080,1920,4.458266666666667,
127,condition1,orange_umbrella,"
orange",2616,101,umbrella,[],25,Yes,,,4,2,oui,Français,Français,Female,preAndPostAge8,"Anglais, espagnol, arabe",non,FR,Chrome,Windows,1080,1920,4.458266666666667,
127,condition1,orange_truck,"
orange",1440,102,truck,[],25,Yes,,,4,2,oui,Français,Français,Female,preAndPostAge8,"Anglais, espagnol, arabe",non,FR,Chrome,Windows,1080,1920,4.458266666666667,
127,condition1,purple_glove,"
violet",1528,103,glove,[],25,Yes,,,4,2,oui,Français,Français,Female,preAndPostAge8,"Anglais, espagnol, arabe",non,FR,Chrome,Windows,1080,1920,4.458266666666667,
127,condition1,red_shoe,"
rouge",1400,104,shoe,[],25,Yes,,,4,2,oui,Français,Français,Female,preAndPostAge8,"Anglais, espagnol, arabe",non,FR,Chrome,Windows,1080,1920,4.458266666666667,
127,condition1,white_clock,"
blanc",2456,105,clock,[],25,Yes,,,4,2,oui,Français,Français,Female,preAndPostAge8,"Anglais, espagnol, arabe",non,FR,Chrome,Windows,1080,1920,4.458266666666667,
127,condition1,blue_iron,"
bleu",2824,106,iron,[],25,Yes,,,4,2,oui,Français,Français,Female,preAndPostAge8,"Anglais, espagnol, arabe",non,FR,Chrome,Windows,1080,1920,4.458266666666667,
141,condition1,yellow_stapler,jaune,3689,2,stapler,[],24,Yes,,,4,2,Oui,français,français,Male,preAndPostAge8,"anglais, espagnol",,FR,Chrome,Linux,864,1536,28.2075,
141,condition1,black_cake,"
noir",1659,3,cake,[],24,Yes,,,4,2,Oui,français,français,Male,preAndPostAge8,"anglais, espagnol",,FR,Chrome,Linux,864,1536,28.2075,
141,condition1,purple_calendar,"
violet",3043,4,calendar,[],24,Yes,,,4,2,Oui,français,français,Male,preAndPostAge8,"anglais, espagnol",,FR,Chrome,Linux,864,1536,28.2075,
141,condition1,yellow_coathanger,"
jaune",5903,5,coathanger,[],24,Yes,,,4,2,Oui,français,français,Male,preAndPostAge8,"anglais, espagnol",,FR,Chrome,Linux,864,1536,28.2075,
141,condition1,black_basket,"
noir",2026,6,basket,[],24,Yes,,,4,2,Oui,français,français,Male,preAndPostAge8,"anglais, espagnol",,FR,Chrome,Linux,864,1536,28.2075,
141,condition1,black_shield,noir,3136,7,shield,[],24,Yes,,,4,2,Oui,français,français,Male,preAndPostAge8,"anglais, espagnol",,FR,Chrome,Linux,864,1536,28.2075,
141,condition1,purple_whistle,"
violet",2285,8,whistle,[],24,Yes,,,4,2,Oui,français,français,Male,preAndPostAge8,"anglais, espagnol",,FR,Chrome,Linux,864,1536,28.2075,
141,condition1,white_bike,"
vélo",1467,9,bike,[],24,Yes,,,4,2,Oui,français,français,Male,preAndPostAge8,"anglais, espagnol",,FR,Chrome,Linux,864,1536,28.2075,
141,condition1,purple_tv,violet,3651,10,tv,[],24,Yes,,,4,2,Oui,français,français,Male,preAndPostAge8,"anglais, espagnol",,FR,Chrome,Linux,864,1536,28.2075,
141,condition1,orange_microscope,"
orange",2484,11,microscope,[],24,Yes,,,4,2,Oui,français,français,Male,preAndPostAge8,"anglais, espagnol",,FR,Chrome,Linux,864,1536,28.2075,
141,condition1,green_robot,"
vert",2026,12,robot,[],24,Yes,,,4,2,Oui,français,français,Male,preAndPostAge8,"anglais, espagnol",,FR,Chrome,Linux,864,1536,28.2075,
141,condition1,white_belt,"
blanc",1946,13,belt,[],24,Yes,,,4,2,Oui,français,français,Male,preAndPostAge8,"anglais, espagnol",,FR,Chrome,Linux,864,1536,28.2075,
141,condition1,yellow_binder,"
jaune",1701,14,binder,[],24,Yes,,,4,2,Oui,français,français,Male,preAndPostAge8,"anglais, espagnol",,FR,Chrome,Linux,864,1536,28.2075,
141,condition1,white_book,"
blanc",2887,15,book,[],24,Yes,,,4,2,Oui,français,français,Male,preAndPostAge8,"anglais, espagnol",,FR,Chrome,Linux,864,1536,28.2075,
141,condition1,blue_mouse,"
bleu",2263,16,mouse,[],24,Yes,,,4,2,Oui,français,français,Male,preAndPostAge8,"anglais, espagnol",,FR,Chrome,Linux,864,1536,28.2075,
141,condition1,black_dresser,"
noir",1558,17,dresser,[],24,Yes,,,4,2,Oui,français,français,Male,preAndPostAge8,"anglais, espagnol",,FR,Chrome,Linux,864,1536,28.2075,
141,condition1,white_door,"
blanc",2165,18,door,[],24,Yes,,,4,2,Oui,français,français,Male,preAndPostAge8,"anglais, espagnol",,FR,Chrome,Linux,864,1536,28.2075,
141,condition1,purple_knife,"
violet",2398,19,knife,[],24,Yes,,,4,2,Oui,français,français,Male,preAndPostAge8,"anglais, espagnol",,FR,Chrome,Linux,864,1536,28.2075,
141,condition1,red_candle,"
rouge",1521,20,candle,[],24,Yes,,,4,2,Oui,français,français,Male,preAndPostAge8,"anglais, espagnol",,FR,Chrome,Linux,864,1536,28.2075,
141,condition1,red_pencil,"
rouge",1469,21,pencil,[],24,Yes,,,4,2,Oui,français,français,Male,preAndPostAge8,"anglais, espagnol",,FR,Chrome,Linux,864,1536,28.2075,
141,condition1,white_cushion,"
blanc",2353,22,cushion,[],24,Yes,,,4,2,Oui,français,français,Male,preAndPostAge8,"anglais, espagnol",,FR,Chrome,Linux,864,1536,28.2075,
141,condition1,red_sword,"
rouge",1675,23,sword,[],24,Yes,,,4,2,Oui,français,français,Male,preAndPostAge8,"anglais, espagnol",,FR,Chrome,Linux,864,1536,28.2075,
141,condition1,orange_fish,"
orange",3190,24,fish,[],24,Yes,,,4,2,Oui,français,français,Male,preAndPostAge8,"anglais, espagnol",,FR,Chrome,Linux,864,1536,28.2075,
141,condition1,orange_bowl,"
orange",2639,25,bowl,[],24,Yes,,,4,2,Oui,français,français,Male,preAndPostAge8,"anglais, espagnol",,FR,Chrome,Linux,864,1536,28.2075,
141,condition1,purple_tent,"
violet",1826,26,tent,[],24,Yes,,,4,2,Oui,français,français,Male,preAndPostAge8,"anglais, espagnol",,FR,Chrome,Linux,864,1536,28.2075,
141,condition1,purple_bench,"
violet",2316,27,bench,[],24,Yes,,,4,2,Oui,français,français,Male,preAndPostAge8,"anglais, espagnol",,FR,Chrome,Linux,864,1536,28.2075,
141,condition1,orange_shell,"
orange",1904,28,shell,[],24,Yes,,,4,2,Oui,français,français,Male,preAndPostAge8,"anglais, espagnol",,FR,Chrome,Linux,864,1536,28.2075,
141,condition1,green_lock,"
vert",2427,29,lock,[],24,Yes,,,4,2,Oui,français,français,Male,preAndPostAge8,"anglais, espagnol",,FR,Chrome,Linux,864,1536,28.2075,
141,condition1,purple_razor,"
violet",1677,30,razor,[],24,Yes,,,4,2,Oui,français,français,Male,preAndPostAge8,"anglais, espagnol",,FR,Chrome,Linux,864,1536,28.2075,
141,condition1,yellow_napkin,"
jaune",2052,31,napkin,[],24,Yes,,,4,2,Oui,français,français,Male,preAndPostAge8,"anglais, espagnol",,FR,Chrome,Linux,864,1536,28.2075,
141,condition1,red_bucket,"
rouge",1596,32,bucket,[],24,Yes,,,4,2,Oui,français,français,Male,preAndPostAge8,"anglais, espagnol",,FR,Chrome,Linux,864,1536,28.2075,
141,condition1,white_crown,"
blanc",2387,33,crown,[],24,Yes,,,4,2,Oui,français,français,Male,preAndPostAge8,"anglais, espagnol",,FR,Chrome,Linux,864,1536,28.2075,
141,condition1,black_sock,"
noir",1641,34,sock,[],24,Yes,,,4,2,Oui,français,français,Male,preAndPostAge8,"anglais, espagnol",,FR,Chrome,Linux,864,1536,28.2075,
141,condition1,yellow_iron,"
jaune",1781,35,iron,[],24,Yes,,,4,2,Oui,français,français,Male,preAndPostAge8,"anglais, espagnol",,FR,Chrome,Linux,864,1536,28.2075,
141,condition1,orange_boot,"
orange",3588,36,boot,[],24,Yes,,,4,2,Oui,français,français,Male,preAndPostAge8,"anglais, espagnol",,FR,Chrome,Linux,864,1536,28.2075,
141,condition1,green_tie,"
vert",1773,37,tie,[],24,Yes,,,4,2,Oui,français,français,Male,preAndPostAge8,"anglais, espagnol",,FR,Chrome,Linux,864,1536,28.2075,
141,condition1,red_cap,"
rouge",2050,38,cap,[],24,Yes,,,4,2,Oui,français,français,Male,preAndPostAge8,"anglais, espagnol",,FR,Chrome,Linux,864,1536,28.2075,
141,condition1,green_purse,"
vert",1645,39,purse,[],24,Yes,,,4,2,Oui,français,français,Male,preAndPostAge8,"anglais, espagnol",,FR,Chrome,Linux,864,1536,28.2075,
141,condition1,white_scarf,"
blanc",1773,40,scarf,[],24,Yes,,,4,2,Oui,français,français,Male,preAndPostAge8,"anglais, espagnol",,FR,Chrome,Linux,864,1536,28.2075,
141,condition1,green_fork,"
vert",1697,41,fork,[],24,Yes,,,4,2,Oui,français,français,Male,preAndPostAge8,"anglais, espagnol",,FR,Chrome,Linux,864,1536,28.2075,
141,condition1,red_armchair,"
rouge",1488,42,armchair,[],24,Yes,,,4,2,Oui,français,français,Male,preAndPostAge8,"anglais, espagnol",,FR,Chrome,Linux,864,1536,28.2075,
141,condition1,green_shovel,"
vert",1853,43,shovel,[],24,Yes,,,4,2,Oui,français,français,Male,preAndPostAge8,"anglais, espagnol",,FR,Chrome,Linux,864,1536,28.2075,
141,condition1,white_clock,"
