workerid,proliferate.condition,object,response,rt,slide_number_in_experiment,utterance,catch_trials,subject_information.age,subject_information.asses,subject_information.comments,subject_information.country,subject_information.education,subject_information.enjoyment,subject_information.fairprice,subject_information.firstLanguage,subject_information.frenPrimaryLanguageSchool,subject_information.gender,subject_information.liveInFrenReg,subject_information.otherLanguage,subject_information.problems,subject_information.region,system.Browser,system.OS,system.screenH,system.screenW,time_in_minutes,error
109,condition1,purple_bonbon,bonbon,2473,2,bonbon,[],35,Yes,,,4,-1,,Francais,Francais,Female,preAndPostAge8,"Anglais, suédois",,FR,Chrome,Linux,1440,2560,8.294683333333333,
109,condition1,black_helicopter,"
hélicoptère",3751,3,helicopter,[],35,Yes,,,4,-1,,Francais,Francais,Female,preAndPostAge8,"Anglais, suédois",,FR,Chrome,Linux,1440,2560,8.294683333333333,
109,condition1,purple_screwdriver,"
tournevis",3320,4,screwdriver,[],35,Yes,,,4,-1,,Francais,Francais,Female,preAndPostAge8,"Anglais, suédois",,FR,Chrome,Linux,1440,2560,8.294683333333333,
109,condition1,orange_robot,"
robot",2540,5,robot,[],35,Yes,,,4,-1,,Francais,Francais,Female,preAndPostAge8,"Anglais, suédois",,FR,Chrome,Linux,1440,2560,8.294683333333333,
109,condition1,black_piano,"
piano",2064,6,piano,[],35,Yes,,,4,-1,,Francais,Francais,Female,preAndPostAge8,"Anglais, suédois",,FR,Chrome,Linux,1440,2560,8.294683333333333,
109,condition1,purple_fish,"
poisson",2720,7,fish,[],35,Yes,,,4,-1,,Francais,Francais,Female,preAndPostAge8,"Anglais, suédois",,FR,Chrome,Linux,1440,2560,8.294683333333333,
109,condition1,yellow_bike,"
vélo",2511,8,bike,[],35,Yes,,,4,-1,,Francais,Francais,Female,preAndPostAge8,"Anglais, suédois",,FR,Chrome,Linux,1440,2560,8.294683333333333,
109,condition1,orange_airplane,"
avion",4175,9,airplane,[],35,Yes,,,4,-1,,Francais,Francais,Female,preAndPostAge8,"Anglais, suédois",,FR,Chrome,Linux,1440,2560,8.294683333333333,
109,condition1,orange_dresser,"
commode",2591,10,dresser,[],35,Yes,,,4,-1,,Francais,Francais,Female,preAndPostAge8,"Anglais, suédois",,FR,Chrome,Linux,1440,2560,8.294683333333333,
109,condition1,orange_shell,"
coquillage",4162,11,shell,[],35,Yes,,,4,-1,,Francais,Francais,Female,preAndPostAge8,"Anglais, suédois",,FR,Chrome,Linux,1440,2560,8.294683333333333,
109,condition1,white_phone,"
téléphone",2876,12,phone,[],35,Yes,,,4,-1,,Francais,Francais,Female,preAndPostAge8,"Anglais, suédois",,FR,Chrome,Linux,1440,2560,8.294683333333333,
109,condition1,green_umbrella,"
parapluie",2801,13,umbrella,[],35,Yes,,,4,-1,,Francais,Francais,Female,preAndPostAge8,"Anglais, suédois",,FR,Chrome,Linux,1440,2560,8.294683333333333,
109,condition1,black_purse,"
sac à main",3488,14,purse,[],35,Yes,,,4,-1,,Francais,Francais,Female,preAndPostAge8,"Anglais, suédois",,FR,Chrome,Linux,1440,2560,8.294683333333333,
109,condition1,blue_candle,"
bougie",2016,15,candle,[],35,Yes,,,4,-1,,Francais,Francais,Female,preAndPostAge8,"Anglais, suédois",,FR,Chrome,Linux,1440,2560,8.294683333333333,
109,condition1,green_hammer,"
marteau",5072,16,hammer,[],35,Yes,,,4,-1,,Francais,Francais,Female,preAndPostAge8,"Anglais, suédois",,FR,Chrome,Linux,1440,2560,8.294683333333333,
109,condition1,green_spoon,"
cuillère",7448,17,spoon,[],35,Yes,,,4,-1,,Francais,Francais,Female,preAndPostAge8,"Anglais, suédois",,FR,Chrome,Linux,1440,2560,8.294683333333333,
109,condition1,red_wallet,"
portefeuille",4456,18,wallet,[],35,Yes,,,4,-1,,Francais,Francais,Female,preAndPostAge8,"Anglais, suédois",,FR,Chrome,Linux,1440,2560,8.294683333333333,
109,condition1,white_mask,"
masque",5937,19,mask,[],35,Yes,,,4,-1,,Francais,Francais,Female,preAndPostAge8,"Anglais, suédois",,FR,Chrome,Linux,1440,2560,8.294683333333333,
109,condition1,purple_camera,"
appareil photo",3970,20,camera,[],35,Yes,,,4,-1,,Francais,Francais,Female,preAndPostAge8,"Anglais, suédois",,FR,Chrome,Linux,1440,2560,8.294683333333333,
109,condition1,green_microscope,"
microscope",3277,21,microscope,[],35,Yes,,,4,-1,,Francais,Francais,Female,preAndPostAge8,"Anglais, suédois",,FR,Chrome,Linux,1440,2560,8.294683333333333,
109,condition1,blue_shirt,"
t-shirt",4239,22,shirt,[],35,Yes,,,4,-1,,Francais,Francais,Female,preAndPostAge8,"Anglais, suédois",,FR,Chrome,Linux,1440,2560,8.294683333333333,
109,condition1,blue_balloon,"
ballon",2657,23,balloon,[],35,Yes,,,4,-1,,Francais,Francais,Female,preAndPostAge8,"Anglais, suédois",,FR,Chrome,Linux,1440,2560,8.294683333333333,
109,condition1,purple_shovel,"
pelle",2319,24,shovel,[],35,Yes,,,4,-1,,Francais,Francais,Female,preAndPostAge8,"Anglais, suédois",,FR,Chrome,Linux,1440,2560,8.294683333333333,
109,condition1,black_lipstick,"
rouge à lèvres",5040,25,lipstick,[],35,Yes,,,4,-1,,Francais,Francais,Female,preAndPostAge8,"Anglais, suédois",,FR,Chrome,Linux,1440,2560,8.294683333333333,
109,condition1,purple_remote,"
télécommande",3366,26,remote,[],35,Yes,,,4,-1,,Francais,Francais,Female,preAndPostAge8,"Anglais, suédois",,FR,Chrome,Linux,1440,2560,8.294683333333333,
109,condition1,blue_butterfly,"
papillon",2361,27,butterfly,[],35,Yes,,,4,-1,,Francais,Francais,Female,preAndPostAge8,"Anglais, suédois",,FR,Chrome,Linux,1440,2560,8.294683333333333,
109,condition1,yellow_bed,"
lit",1492,28,bed,[],35,Yes,,,4,-1,,Francais,Francais,Female,preAndPostAge8,"Anglais, suédois",,FR,Chrome,Linux,1440,2560,8.294683333333333,
109,condition1,white_comb,"
brosse",3036,29,comb,[],35,Yes,,,4,-1,,Francais,Francais,Female,preAndPostAge8,"Anglais, suédois",,FR,Chrome,Linux,1440,2560,8.294683333333333,
109,condition1,blue_key,"
clef",2081,30,key,[],35,Yes,,,4,-1,,Francais,Francais,Female,preAndPostAge8,"Anglais, suédois",,FR,Chrome,Linux,1440,2560,8.294683333333333,
109,condition1,black_cake,"
gâteau",5552,31,cake,[],35,Yes,,,4,-1,,Francais,Francais,Female,preAndPostAge8,"Anglais, suédois",,FR,Chrome,Linux,1440,2560,8.294683333333333,
109,condition1,blue_switch,"
interrupteur",14656,32,switch,[],35,Yes,,,4,-1,,Francais,Francais,Female,preAndPostAge8,"Anglais, suédois",,FR,Chrome,Linux,1440,2560,8.294683333333333,
109,condition1,white_iron,"
fer à repasser",9792,33,iron,[],35,Yes,,,4,-1,,Francais,Francais,Female,preAndPostAge8,"Anglais, suédois",,FR,Chrome,Linux,1440,2560,8.294683333333333,
109,condition1,black_sock,"
chaussette",3580,34,sock,[],35,Yes,,,4,-1,,Francais,Francais,Female,preAndPostAge8,"Anglais, suédois",,FR,Chrome,Linux,1440,2560,8.294683333333333,
109,condition1,purple_plate,"
assiette",2915,35,plate,[],35,Yes,,,4,-1,,Francais,Francais,Female,preAndPostAge8,"Anglais, suédois",,FR,Chrome,Linux,1440,2560,8.294683333333333,
109,condition1,red_mug,"
tasse",2056,36,mug,[],35,Yes,,,4,-1,,Francais,Francais,Female,preAndPostAge8,"Anglais, suédois",,FR,Chrome,Linux,1440,2560,8.294683333333333,
109,condition1,black_slipper,"
pantoufle",3320,37,slipper,[],35,Yes,,,4,-1,,Francais,Francais,Female,preAndPostAge8,"Anglais, suédois",,FR,Chrome,Linux,1440,2560,8.294683333333333,
109,condition1,red_yarn,"
boule de laine",6144,38,yarn,[],35,Yes,,,4,-1,,Francais,Francais,Female,preAndPostAge8,"Anglais, suédois",,FR,Chrome,Linux,1440,2560,8.294683333333333,
109,condition1,red_flower,"
fleur",1936,39,flower,[],35,Yes,,,4,-1,,Francais,Francais,Female,preAndPostAge8,"Anglais, suédois",,FR,Chrome,Linux,1440,2560,8.294683333333333,
109,condition1,orange_sponge,"
éponge",3795,40,sponge,[],35,Yes,,,4,-1,,Francais,Francais,Female,preAndPostAge8,"Anglais, suédois",,FR,Chrome,Linux,1440,2560,8.294683333333333,
109,condition1,purple_ribbon,"
ruban",5388,41,ribbon,[],35,Yes,,,4,-1,,Francais,Francais,Female,preAndPostAge8,"Anglais, suédois",,FR,Chrome,Linux,1440,2560,8.294683333333333,
109,condition1,green_bandaid,"
pansement",3744,42,bandaid,[],35,Yes,,,4,-1,,Francais,Francais,Female,preAndPostAge8,"Anglais, suédois",,FR,Chrome,Linux,1440,2560,8.294683333333333,
109,condition1,white_armchair,"
fauteuil",4369,43,armchair,[],35,Yes,,,4,-1,,Francais,Francais,Female,preAndPostAge8,"Anglais, suédois",,FR,Chrome,Linux,1440,2560,8.294683333333333,
109,condition1,purple_razor,"
rasoir",3040,44,razor,[],35,Yes,,,4,-1,,Francais,Francais,Female,preAndPostAge8,"Anglais, suédois",,FR,Chrome,Linux,1440,2560,8.294683333333333,
109,condition1,orange_bowl,"
bol",2291,45,bowl,[],35,Yes,,,4,-1,,Francais,Francais,Female,preAndPostAge8,"Anglais, suédois",,FR,Chrome,Linux,1440,2560,8.294683333333333,
109,condition1,yellow_dustpan,"
pelle",3550,46,dustpan,[],35,Yes,,,4,-1,,Francais,Francais,Female,preAndPostAge8,"Anglais, suédois",,FR,Chrome,Linux,1440,2560,8.294683333333333,
109,condition1,yellow_rug,"
tapis",3983,47,rug,[],35,Yes,,,4,-1,,Francais,Francais,Female,preAndPostAge8,"Anglais, suédois",,FR,Chrome,Linux,1440,2560,8.294683333333333,
109,condition1,white_cap,"
casquette",3426,48,cap,[],35,Yes,,,4,-1,,Francais,Francais,Female,preAndPostAge8,"Anglais, suédois",,FR,Chrome,Linux,1440,2560,8.294683333333333,
109,condition1,red_belt,"
ceinture",2654,49,belt,[],35,Yes,,,4,-1,,Francais,Francais,Female,preAndPostAge8,"Anglais, suédois",,FR,Chrome,Linux,1440,2560,8.294683333333333,
109,condition1,white_ornament,"
boule de Noël",9055,50,ornament,[],35,Yes,,,4,-1,,Francais,Francais,Female,preAndPostAge8,"Anglais, suédois",,FR,Chrome,Linux,1440,2560,8.294683333333333,
109,condition1,yellow_frame,"
cadre",2300,51,frame,[],35,Yes,,,4,-1,,Francais,Francais,Female,preAndPostAge8,"Anglais, suédois",,FR,Chrome,Linux,1440,2560,8.294683333333333,
109,condition1,yellow_notebook,"
cahier",3587,52,notebook,[],35,Yes,,,4,-1,,Francais,Francais,Female,preAndPostAge8,"Anglais, suédois",,FR,Chrome,Linux,1440,2560,8.294683333333333,
109,condition1,purple_tie,"
cravate",12320,53,tie,[],35,Yes,,,4,-1,,Francais,Francais,Female,preAndPostAge8,"Anglais, suédois",,FR,Chrome,Linux,1440,2560,8.294683333333333,
109,condition1,blue_coathanger,"
ceintre",1891,54,coathanger,[],35,Yes,,,4,-1,,Francais,Francais,Female,preAndPostAge8,"Anglais, suédois",,FR,Chrome,Linux,1440,2560,8.294683333333333,
109,condition1,black_whistle,"
sifflet",3036,55,whistle,[],35,Yes,,,4,-1,,Francais,Francais,Female,preAndPostAge8,"Anglais, suédois",,FR,Chrome,Linux,1440,2560,8.294683333333333,
109,condition1,blue_lamp,"
lampe",1793,56,lamp,[],35,Yes,,,4,-1,,Francais,Francais,Female,preAndPostAge8,"Anglais, suédois",,FR,Chrome,Linux,1440,2560,8.294683333333333,
109,condition1,green_shield,"
blason",2656,57,shield,[],35,Yes,,,4,-1,,Francais,Francais,Female,preAndPostAge8,"Anglais, suédois",,FR,Chrome,Linux,1440,2560,8.294683333333333,
109,condition1,white_magnifyingglass,"
loupe",2128,58,magnifyingglass,[],35,Yes,,,4,-1,,Francais,Francais,Female,preAndPostAge8,"Anglais, suédois",,FR,Chrome,Linux,1440,2560,8.294683333333333,
109,condition1,white_table,"
table",2672,59,table,[],35,Yes,,,4,-1,,Francais,Francais,Female,preAndPostAge8,"Anglais, suédois",,FR,Chrome,Linux,1440,2560,8.294683333333333,
109,condition1,blue_pencil,"
crayon",3697,60,pencil,[],35,Yes,,,4,-1,,Francais,Francais,Female,preAndPostAge8,"Anglais, suédois",,FR,Chrome,Linux,1440,2560,8.294683333333333,
109,condition1,orange_tv,"
télévision",3310,61,tv,[],35,Yes,,,4,-1,,Francais,Francais,Female,preAndPostAge8,"Anglais, suédois",,FR,Chrome,Linux,1440,2560,8.294683333333333,
109,condition1,black_bench,"
banc",1793,62,bench,[],35,Yes,,,4,-1,,Francais,Francais,Female,preAndPostAge8,"Anglais, suédois",,FR,Chrome,Linux,1440,2560,8.294683333333333,
109,condition1,red_door,"
porte",2334,63,door,[],35,Yes,,,4,-1,,Francais,Francais,Female,preAndPostAge8,"Anglais, suédois",,FR,Chrome,Linux,1440,2560,8.294683333333333,
109,condition1,green_rope,"
fil",2721,64,rope,[],35,Yes,,,4,-1,,Francais,Francais,Female,preAndPostAge8,"Anglais, suédois",,FR,Chrome,Linux,1440,2560,8.294683333333333,
109,condition1,blue_binder,"
classeur",2528,65,binder,[],35,Yes,,,4,-1,,Francais,Francais,Female,preAndPostAge8,"Anglais, suédois",,FR,Chrome,Linux,1440,2560,8.294683333333333,
109,condition1,yellow_cushion,"
coussin",3296,66,cushion,[],35,Yes,,,4,-1,,Francais,Francais,Female,preAndPostAge8,"Anglais, suédois",,FR,Chrome,Linux,1440,2560,8.294683333333333,
109,condition1,yellow_sword,"
épée",4416,67,sword,[],35,Yes,,,4,-1,,Francais,Francais,Female,preAndPostAge8,"Anglais, suédois",,FR,Chrome,Linux,1440,2560,8.294683333333333,
109,condition1,orange_boot,"
botte",2001,68,boot,[],35,Yes,,,4,-1,,Francais,Francais,Female,preAndPostAge8,"Anglais, suédois",,FR,Chrome,Linux,1440,2560,8.294683333333333,
109,condition1,blue_billiardball,"
balle de bowling",5138,69,billiardball,[],35,Yes,,,4,-1,,Francais,Francais,Female,preAndPostAge8,"Anglais, suédois",,FR,Chrome,Linux,1440,2560,8.294683333333333,
109,condition1,white_clock,"
réveil",2909,70,clock,[],35,Yes,,,4,-1,,Francais,Francais,Female,preAndPostAge8,"Anglais, suédois",,FR,Chrome,Linux,1440,2560,8.294683333333333,
109,condition1,green_lock,"
cadenas",3104,71,lock,[],35,Yes,,,4,-1,,Francais,Francais,Female,preAndPostAge8,"Anglais, suédois",,FR,Chrome,Linux,1440,2560,8.294683333333333,
109,condition1,yellow_calculator,"
calculatrice",3511,72,calculator,[],35,Yes,,,4,-1,,Francais,Francais,Female,preAndPostAge8,"Anglais, suédois",,FR,Chrome,Linux,1440,2560,8.294683333333333,
109,condition1,yellow_fence,clôture,30347,73,fence,[],35,Yes,,,4,-1,,Francais,Francais,Female,preAndPostAge8,"Anglais, suédois",,FR,Chrome,Linux,1440,2560,8.294683333333333,
109,condition1,black_calendar,"
calendrier",4499,74,calendar,[],35,Yes,,,4,-1,,Francais,Francais,Female,preAndPostAge8,"Anglais, suédois",,FR,Chrome,Linux,1440,2560,8.294683333333333,
109,condition1,purple_radio,"
radio",2525,75,radio,[],35,Yes,,,4,-1,,Francais,Francais,Female,preAndPostAge8,"Anglais, suédois",,FR,Chrome,Linux,1440,2560,8.294683333333333,
109,condition1,purple_drum,"
tambour",3200,76,drum,[],35,Yes,,,4,-1,,Francais,Francais,Female,preAndPostAge8,"Anglais, suédois",,FR,Chrome,Linux,1440,2560,8.294683333333333,
109,condition1,orange_binoculars,"
jumelles",29664,77,binoculars,[],35,Yes,,,4,-1,,Francais,Francais,Female,preAndPostAge8,"Anglais, suédois",,FR,Chrome,Linux,1440,2560,8.294683333333333,
109,condition1,yellow_stapler,"
agrafeuse",6965,78,stapler,[],35,Yes,,,4,-1,,Francais,Francais,Female,preAndPostAge8,"Anglais, suédois",,FR,Chrome,Linux,1440,2560,8.294683333333333,
109,condition1,blue_ruler,"
règle",4493,79,ruler,[],35,Yes,,,4,-1,,Francais,Francais,Female,preAndPostAge8,"Anglais, suédois",,FR,Chrome,Linux,1440,2560,8.294683333333333,
109,condition1,purple_tent,"
tente",2431,80,tent,[],35,Yes,,,4,-1,,Francais,Francais,Female,preAndPostAge8,"Anglais, suédois",,FR,Chrome,Linux,1440,2560,8.294683333333333,
109,condition1,white_ring,"
bague",4468,81,ring,[],35,Yes,,,4,-1,,Francais,Francais,Female,preAndPostAge8,"Anglais, suédois",,FR,Chrome,Linux,1440,2560,8.294683333333333,
109,condition1,white_bucket,"
sceau",11852,82,bucket,[],35,Yes,,,4,-1,,Francais,Francais,Female,preAndPostAge8,"Anglais, suédois",,FR,Chrome,Linux,1440,2560,8.294683333333333,
109,condition1,orange_luggage,"
valise",3760,83,luggage,[],35,Yes,,,4,-1,,Francais,Francais,Female,preAndPostAge8,"Anglais, suédois",,FR,Chrome,Linux,1440,2560,8.294683333333333,
109,condition1,red_mouse,"
souris",2752,84,mouse,[],35,Yes,,,4,-1,,Francais,Francais,Female,preAndPostAge8,"Anglais, suédois",,FR,Chrome,Linux,1440,2560,8.294683333333333,
109,condition1,green_duck,"
canard en plastique",5023,85,duck,[],35,Yes,,,4,-1,,Francais,Francais,Female,preAndPostAge8,"Anglais, suédois",,FR,Chrome,Linux,1440,2560,8.294683333333333,
109,condition1,red_shoe,"
chaussure",2384,86,shoe,[],35,Yes,,,4,-1,,Francais,Francais,Female,preAndPostAge8,"Anglais, suédois",,FR,Chrome,Linux,1440,2560,8.294683333333333,
109,condition1,orange_knife,"
couteau",3696,87,knife,[],35,Yes,,,4,-1,,Francais,Francais,Female,preAndPostAge8,"Anglais, suédois",,FR,Chrome,Linux,1440,2560,8.294683333333333,
109,condition1,red_crown,"
couronne",3728,88,crown,[],35,Yes,,,4,-1,,Francais,Francais,Female,preAndPostAge8,"Anglais, suédois",,FR,Chrome,Linux,1440,2560,8.294683333333333,
109,condition1,green_fork,"
fourchette",3232,89,fork,[],35,Yes,,,4,-1,,Francais,Francais,Female,preAndPostAge8,"Anglais, suédois",,FR,Chrome,Linux,1440,2560,8.294683333333333,
109,condition1,black_ladle,"
loupe",5305,90,ladle,[],35,Yes,,,4,-1,,Francais,Francais,Female,preAndPostAge8,"Anglais, suédois",,FR,Chrome,Linux,1440,2560,8.294683333333333,
109,condition1,green_die,"
dé",1991,91,die,[],35,Yes,,,4,-1,,Francais,Francais,Female,preAndPostAge8,"Anglais, suédois",,FR,Chrome,Linux,1440,2560,8.294683333333333,
109,condition1,white_chair,"
chaise",2080,92,chair,[],35,Yes,,,4,-1,,Francais,Francais,Female,preAndPostAge8,"Anglais, suédois",,FR,Chrome,Linux,1440,2560,8.294683333333333,
109,condition1,yellow_present,"
cadeau",3840,93,present,[],35,Yes,,,4,-1,,Francais,Francais,Female,preAndPostAge8,"Anglais, suédois",,FR,Chrome,Linux,1440,2560,8.294683333333333,
109,condition1,orange_glove,"
gant",4256,94,glove,[],35,Yes,,,4,-1,,Francais,Francais,Female,preAndPostAge8,"Anglais, suédois",,FR,Chrome,Linux,1440,2560,8.294683333333333,
109,condition1,white_bracelet,"
collier",2400,95,bracelet,[],35,Yes,,,4,-1,,Francais,Francais,Female,preAndPostAge8,"Anglais, suédois",,FR,Chrome,Linux,1440,2560,8.294683333333333,
109,condition1,green_vase,"
vase",2288,96,vase,[],35,Yes,,,4,-1,,Francais,Francais,Female,preAndPostAge8,"Anglais, suédois",,FR,Chrome,Linux,1440,2560,8.294683333333333,
109,condition1,yellow_scarf,"
écharpe",2640,97,scarf,[],35,Yes,,,4,-1,,Francais,Francais,Female,preAndPostAge8,"Anglais, suédois",,FR,Chrome,Linux,1440,2560,8.294683333333333,
109,condition1,blue_fryingpan,"
poele",4048,98,fryingpan,[],35,Yes,,,4,-1,,Francais,Francais,Female,preAndPostAge8,"Anglais, suédois",,FR,Chrome,Linux,1440,2560,8.294683333333333,
109,condition1,black_basket,"
panier",2096,99,basket,[],35,Yes,,,4,-1,,Francais,Francais,Female,preAndPostAge8,"Anglais, suédois",,FR,Chrome,Linux,1440,2560,8.294683333333333,
109,condition1,white_napkin,"
mouchoir",2468,100,napkin,[],35,Yes,,,4,-1,,Francais,Francais,Female,preAndPostAge8,"Anglais, suédois",,FR,Chrome,Linux,1440,2560,8.294683333333333,
109,condition1,black_box,"
boîte",3788,101,box,[],35,Yes,,,4,-1,,Francais,Francais,Female,preAndPostAge8,"Anglais, suédois",,FR,Chrome,Linux,1440,2560,8.294683333333333,
109,condition1,red_guitar,"
guitare",1982,102,guitar,[],35,Yes,,,4,-1,,Francais,Francais,Female,preAndPostAge8,"Anglais, suédois",,FR,Chrome,Linux,1440,2560,8.294683333333333,
109,condition1,yellow_dress,"
robe",7525,103,dress,[],35,Yes,,,4,-1,,Francais,Francais,Female,preAndPostAge8,"Anglais, suédois",,FR,Chrome,Linux,1440,2560,8.294683333333333,
109,condition1,green_necklace,"
collier",2878,104,necklace,[],35,Yes,,,4,-1,,Francais,Francais,Female,preAndPostAge8,"Anglais, suédois",,FR,Chrome,Linux,1440,2560,8.294683333333333,
109,condition1,red_book,"
livre",2925,105,book,[],35,Yes,,,4,-1,,Francais,Francais,Female,preAndPostAge8,"Anglais, suédois",,FR,Chrome,Linux,1440,2560,8.294683333333333,
109,condition1,black_truck,"
camion",2354,106,truck,[],35,Yes,,,4,-1,,Francais,Francais,Female,preAndPostAge8,"Anglais, suédois",,FR,Chrome,Linux,1440,2560,8.294683333333333,
112,condition1,black_purse,sacoche,4272,2,purse,[],31,Yes,,,4,2,oui,francais,francais,Male,preAndPostAge8,francais,,CA,Chrome,Windows,1080,1920,6.8285,
112,condition1,blue_bucket,"
seau",1911,3,bucket,[],31,Yes,,,4,2,oui,francais,francais,Male,preAndPostAge8,francais,,CA,Chrome,Windows,1080,1920,6.8285,
112,condition1,black_bench,"
banc",1992,4,bench,[],31,Yes,,,4,2,oui,francais,francais,Male,preAndPostAge8,francais,,CA,Chrome,Windows,1080,1920,6.8285,
112,condition1,green_die,"
dé",1616,5,die,[],31,Yes,,,4,2,oui,francais,francais,Male,preAndPostAge8,francais,,CA,Chrome,Windows,1080,1920,6.8285,
112,condition1,orange_plate,"
assiette",5872,6,plate,[],31,Yes,,,4,2,oui,francais,francais,Male,preAndPostAge8,francais,,CA,Chrome,Windows,1080,1920,6.8285,
112,condition1,red_book,"
livre",1952,7,book,[],31,Yes,,,4,2,oui,francais,francais,Male,preAndPostAge8,francais,,CA,Chrome,Windows,1080,1920,6.8285,
112,condition1,red_ring,"
bague",2640,8,ring,[],31,Yes,,,4,2,oui,francais,francais,Male,preAndPostAge8,francais,,CA,Chrome,Windows,1080,1920,6.8285,
112,condition1,purple_razor,"
rasoir",2328,9,razor,[],31,Yes,,,4,2,oui,francais,francais,Male,preAndPostAge8,francais,,CA,Chrome,Windows,1080,1920,6.8285,
112,condition1,white_cap,"
casquette",3232,10,cap,[],31,Yes,,,4,2,oui,francais,francais,Male,preAndPostAge8,francais,,CA,Chrome,Windows,1080,1920,6.8285,
112,condition1,orange_glove,"
gant",2472,11,glove,[],31,Yes,,,4,2,oui,francais,francais,Male,preAndPostAge8,francais,,CA,Chrome,Windows,1080,1920,6.8285,
112,condition1,yellow_mouse,"
souris",1768,12,mouse,[],31,Yes,,,4,2,oui,francais,francais,Male,preAndPostAge8,francais,,CA,Chrome,Windows,1080,1920,6.8285,
112,condition1,green_tv,"
télévision",4040,13,tv,[],31,Yes,,,4,2,oui,francais,francais,Male,preAndPostAge8,francais,,CA,Chrome,Windows,1080,1920,6.8285,
112,condition1,white_bike,"
bicyclette",9183,14,bike,[],31,Yes,,,4,2,oui,francais,francais,Male,preAndPostAge8,francais,,CA,Chrome,Windows,1080,1920,6.8285,
112,condition1,black_lipstick,"
rouge à lèvre",4608,15,lipstick,[],31,Yes,,,4,2,oui,francais,francais,Male,preAndPostAge8,francais,,CA,Chrome,Windows,1080,1920,6.8285,
112,condition1,blue_crown,"
couronne",2408,16,crown,[],31,Yes,,,4,2,oui,francais,francais,Male,preAndPostAge8,francais,,CA,Chrome,Windows,1080,1920,6.8285,
112,condition1,orange_binoculars,"
jumelle",2680,17,binoculars,[],31,Yes,,,4,2,oui,francais,francais,Male,preAndPostAge8,francais,,CA,Chrome,Windows,1080,1920,6.8285,
112,condition1,blue_scarf,"
foulard",10584,18,scarf,[],31,Yes,,,4,2,oui,francais,francais,Male,preAndPostAge8,francais,,CA,Chrome,Windows,1080,1920,6.8285,
112,condition1,yellow_yarn,"
laine",1807,19,yarn,[],31,Yes,,,4,2,oui,francais,francais,Male,preAndPostAge8,francais,,CA,Chrome,Windows,1080,1920,6.8285,
112,condition1,white_comb,"
peigne",1880,20,comb,[],31,Yes,,,4,2,oui,francais,francais,Male,preAndPostAge8,francais,,CA,Chrome,Windows,1080,1920,6.8285,
112,condition1,blue_flower,"
fleur",2457,21,flower,[],31,Yes,,,4,2,oui,francais,francais,Male,preAndPostAge8,francais,,CA,Chrome,Windows,1080,1920,6.8285,
112,condition1,green_necklace,"
colier",2688,22,necklace,[],31,Yes,,,4,2,oui,francais,francais,Male,preAndPostAge8,francais,,CA,Chrome,Windows,1080,1920,6.8285,
112,condition1,red_magnifyingglass,"
loupe",2311,23,magnifyingglass,[],31,Yes,,,4,2,oui,francais,francais,Male,preAndPostAge8,francais,,CA,Chrome,Windows,1080,1920,6.8285,
112,condition1,yellow_mug,"
tasse",2440,24,mug,[],31,Yes,,,4,2,oui,francais,francais,Male,preAndPostAge8,francais,,CA,Chrome,Windows,1080,1920,6.8285,
112,condition1,red_iron,"
fer à repasser",5729,25,iron,[],31,Yes,,,4,2,oui,francais,francais,Male,preAndPostAge8,francais,,CA,Chrome,Windows,1080,1920,6.8285,
112,condition1,blue_table,"
table",4376,26,table,[],31,Yes,,,4,2,oui,francais,francais,Male,preAndPostAge8,francais,,CA,Chrome,Windows,1080,1920,6.8285,
112,condition1,blue_cushion,"
coussin",2824,27,cushion,[],31,Yes,,,4,2,oui,francais,francais,Male,preAndPostAge8,francais,,CA,Chrome,Windows,1080,1920,6.8285,
112,condition1,black_bowl,"
bol",2128,28,bowl,[],31,Yes,,,4,2,oui,francais,francais,Male,preAndPostAge8,francais,,CA,Chrome,Windows,1080,1920,6.8285,
112,condition1,orange_truck,"
camion",2584,29,truck,[],31,Yes,,,4,2,oui,francais,francais,Male,preAndPostAge8,francais,,CA,Chrome,Windows,1080,1920,6.8285,
112,condition1,yellow_bed,"
lit",1551,30,bed,[],31,Yes,,,4,2,oui,francais,francais,Male,preAndPostAge8,francais,,CA,Chrome,Windows,1080,1920,6.8285,
112,condition1,red_switch,"
interupteur",4449,31,switch,[],31,Yes,,,4,2,oui,francais,francais,Male,preAndPostAge8,francais,,CA,Chrome,Windows,1080,1920,6.8285,
112,condition1,black_fork,"
fourchette",3063,32,fork,[],31,Yes,,,4,2,oui,francais,francais,Male,preAndPostAge8,francais,,CA,Chrome,Windows,1080,1920,6.8285,
112,condition1,orange_box,"
boîte",3624,33,box,[],31,Yes,,,4,2,oui,francais,francais,Male,preAndPostAge8,francais,,CA,Chrome,Windows,1080,1920,6.8285,
112,condition1,yellow_rug,"
tapis",1687,34,rug,[],31,Yes,,,4,2,oui,francais,francais,Male,preAndPostAge8,francais,,CA,Chrome,Windows,1080,1920,6.8285,
112,condition1,black_dresser,"
comode",2231,35,dresser,[],31,Yes,,,4,2,oui,francais,francais,Male,preAndPostAge8,francais,,CA,Chrome,Windows,1080,1920,6.8285,
112,condition1,orange_screwdriver,"
tournevis",4239,36,screwdriver,[],31,Yes,,,4,2,oui,francais,francais,Male,preAndPostAge8,francais,,CA,Chrome,Windows,1080,1920,6.8285,
112,condition1,yellow_clock,"
réveil matin",3199,37,clock,[],31,Yes,,,4,2,oui,francais,francais,Male,preAndPostAge8,francais,,CA,Chrome,Windows,1080,1920,6.8285,
112,condition1,green_microscope,"
microscope",4153,38,microscope,[],31,Yes,,,4,2,oui,francais,francais,Male,preAndPostAge8,francais,,CA,Chrome,Windows,1080,1920,6.8285,
112,condition1,purple_ribbon,"
boucle",8295,39,ribbon,[],31,Yes,,,4,2,oui,francais,francais,Male,preAndPostAge8,francais,,CA,Chrome,Windows,1080,1920,6.8285,
112,condition1,blue_door,"
porte",2072,40,door,[],31,Yes,,,4,2,oui,francais,francais,Male,preAndPostAge8,francais,,CA,Chrome,Windows,1080,1920,6.8285,
112,condition1,blue_mask,"
masque",3648,41,mask,[],31,Yes,,,4,2,oui,francais,francais,Male,preAndPostAge8,francais,,CA,Chrome,Windows,1080,1920,6.8285,
112,condition1,red_fence,"
cloture",2903,42,fence,[],31,Yes,,,4,2,oui,francais,francais,Male,preAndPostAge8,francais,,CA,Chrome,Windows,1080,1920,6.8285,
112,condition1,blue_binder,"
tapis",6584,43,binder,[],31,Yes,,,4,2,oui,francais,francais,Male,preAndPostAge8,francais,,CA,Chrome,Windows,1080,1920,6.8285,
112,condition1,blue_dress,"
robe",3920,44,dress,[],31,Yes,,,4,2,oui,francais,francais,Male,preAndPostAge8,francais,,CA,Chrome,Windows,1080,1920,6.8285,
112,condition1,blue_frame,"
cadre",2287,45,frame,[],31,Yes,,,4,2,oui,francais,francais,Male,preAndPostAge8,francais,,CA,Chrome,Windows,1080,1920,6.8285,
112,condition1,orange_tie,"
cravate",3105,46,tie,[],31,Yes,,,4,2,oui,francais,francais,Male,preAndPostAge8,francais,,CA,Chrome,Windows,1080,1920,6.8285,
112,condition1,purple_shovel,"
pelle",1815,47,shovel,[],31,Yes,,,4,2,oui,francais,francais,Male,preAndPostAge8,francais,,CA,Chrome,Windows,1080,1920,6.8285,
112,condition1,purple_shield,"
bouclier",2703,48,shield,[],31,Yes,,,4,2,oui,francais,francais,Male,preAndPostAge8,francais,,CA,Chrome,Windows,1080,1920,6.8285,
112,condition1,orange_remote,"
télécommande",3360,49,remote,[],31,Yes,,,4,2,oui,francais,francais,Male,preAndPostAge8,francais,,CA,Chrome,Windows,1080,1920,6.8285,
112,condition1,orange_knife,"
couteau",3088,50,knife,[],31,Yes,,,4,2,oui,francais,francais,Male,preAndPostAge8,francais,,CA,Chrome,Windows,1080,1920,6.8285,
112,condition1,yellow_balloon,"
ballone",8128,51,balloon,[],31,Yes,,,4,2,oui,francais,francais,Male,preAndPostAge8,francais,,CA,Chrome,Windows,1080,1920,6.8285,
112,condition1,red_ornament,"
boule de noël",11696,52,ornament,[],31,Yes,,,4,2,oui,francais,francais,Male,preAndPostAge8,francais,,CA,Chrome,Windows,1080,1920,6.8285,
112,condition1,blue_pencil,"
crayon",2728,53,pencil,[],31,Yes,,,4,2,oui,francais,francais,Male,preAndPostAge8,francais,,CA,Chrome,Windows,1080,1920,6.8285,
112,condition1,purple_ladle,"
louche",3888,54,ladle,[],31,Yes,,,4,2,oui,francais,francais,Male,preAndPostAge8,francais,,CA,Chrome,Windows,1080,1920,6.8285,
112,condition1,red_phone,"
téléphone",3225,55,phone,[],31,Yes,,,4,2,oui,francais,francais,Male,preAndPostAge8,francais,,CA,Chrome,Windows,1080,1920,6.8285,
112,condition1,blue_wallet,"
portefeuille",3287,56,wallet,[],31,Yes,,,4,2,oui,francais,francais,Male,preAndPostAge8,francais,,CA,Chrome,Windows,1080,1920,6.8285,
112,condition1,blue_key,"
clé",1543,57,key,[],31,Yes,,,4,2,oui,francais,francais,Male,preAndPostAge8,francais,,CA,Chrome,Windows,1080,1920,6.8285,
112,condition1,black_bonbon,"
bonbon",2031,58,bonbon,[],31,Yes,,,4,2,oui,francais,francais,Male,preAndPostAge8,francais,,CA,Chrome,Windows,1080,1920,6.8285,
112,condition1,orange_umbrella,"
parapluie",3136,59,umbrella,[],31,Yes,,,4,2,oui,francais,francais,Male,preAndPostAge8,francais,,CA,Chrome,Windows,1080,1920,6.8285,
112,condition1,orange_vase,"
vasse",2688,60,vase,[],31,Yes,,,4,2,oui,francais,francais,Male,preAndPostAge8,francais,,CA,Chrome,Windows,1080,1920,6.8285,
112,condition1,red_fryingpan,"
poêle",5208,61,fryingpan,[],31,Yes,,,4,2,oui,francais,francais,Male,preAndPostAge8,francais,,CA,Chrome,Windows,1080,1920,6.8285,
112,condition1,green_robot,"
robot",1984,62,robot,[],31,Yes,,,4,2,oui,francais,francais,Male,preAndPostAge8,francais,,CA,Chrome,Windows,1080,1920,6.8285,
112,condition1,yellow_dustpan,"
porte poussière",8127,63,dustpan,[],31,Yes,,,4,2,oui,francais,francais,Male,preAndPostAge8,francais,,CA,Chrome,Windows,1080,1920,6.8285,
112,condition1,black_duck,"
canard",3328,64,duck,[],31,Yes,,,4,2,oui,francais,francais,Male,preAndPostAge8,francais,,CA,Chrome,Windows,1080,1920,6.8285,
112,condition1,orange_rope,"
corde",2464,65,rope,[],31,Yes,,,4,2,oui,francais,francais,Male,preAndPostAge8,francais,,CA,Chrome,Windows,1080,1920,6.8285,
112,condition1,purple_slipper,"
pantoufle",3168,66,slipper,[],31,Yes,,,4,2,oui,francais,francais,Male,preAndPostAge8,francais,,CA,Chrome,Windows,1080,1920,6.8285,
112,condition1,red_armchair,"
chaise",2952,67,armchair,[],31,Yes,,,4,2,oui,francais,francais,Male,preAndPostAge8,francais,,CA,Chrome,Windows,1080,1920,6.8285,
112,condition1,black_hammer,"
marteau",4040,68,hammer,[],31,Yes,,,4,2,oui,francais,francais,Male,preAndPostAge8,francais,,CA,Chrome,Windows,1080,1920,6.8285,
112,condition1,blue_coathanger,"
support",4424,69,coathanger,[],31,Yes,,,4,2,oui,francais,francais,Male,preAndPostAge8,francais,,CA,Chrome,Windows,1080,1920,6.8285,
112,condition1,green_bandaid,"
plasteur",2784,70,bandaid,[],31,Yes,,,4,2,oui,francais,francais,Male,preAndPostAge8,francais,,CA,Chrome,Windows,1080,1920,6.8285,
112,condition1,purple_boot,"
botte",1999,71,boot,[],31,Yes,,,4,2,oui,francais,francais,Male,preAndPostAge8,francais,,CA,Chrome,Windows,1080,1920,6.8285,
112,condition1,green_sock,"
chaussette",4192,72,sock,[],31,Yes,,,4,2,oui,francais,francais,Male,preAndPostAge8,francais,,CA,Chrome,Windows,1080,1920,6.8285,
112,condition1,green_cake,"
gateau",2968,73,cake,[],31,Yes,,,4,2,oui,francais,francais,Male,preAndPostAge8,francais,,CA,Chrome,Windows,1080,1920,6.8285,
112,condition1,purple_whistle,"
sifflet",2279,74,whistle,[],31,Yes,,,4,2,oui,francais,francais,Male,preAndPostAge8,francais,,CA,Chrome,Windows,1080,1920,6.8285,
112,condition1,white_sword,"
épée",3032,75,sword,[],31,Yes,,,4,2,oui,francais,francais,Male,preAndPostAge8,francais,,CA,Chrome,Windows,1080,1920,6.8285,
112,condition1,green_camera,"
appareil photo",6817,76,camera,[],31,Yes,,,4,2,oui,francais,francais,Male,preAndPostAge8,francais,,CA,Chrome,Windows,1080,1920,6.8285,
112,condition1,black_fish,"
poisson",3504,77,fish,[],31,Yes,,,4,2,oui,francais,francais,Male,preAndPostAge8,francais,,CA,Chrome,Windows,1080,1920,6.8285,
112,condition1,yellow_bracelet,"
colier",3287,78,bracelet,[],31,Yes,,,4,2,oui,francais,francais,Male,preAndPostAge8,francais,,CA,Chrome,Windows,1080,1920,6.8285,
112,condition1,white_guitar,"
guitare",2992,79,guitar,[],31,Yes,,,4,2,oui,francais,francais,Male,preAndPostAge8,francais,,CA,Chrome,Windows,1080,1920,6.8285,
112,condition1,blue_shoe,"
chaussure",3736,80,shoe,[],31,Yes,,,4,2,oui,francais,francais,Male,preAndPostAge8,francais,,CA,Chrome,Windows,1080,1920,6.8285,
112,condition1,white_stapler,"
brocheusse",6608,81,stapler,[],31,Yes,,,4,2,oui,francais,francais,Male,preAndPostAge8,francais,,CA,Chrome,Windows,1080,1920,6.8285,
112,condition1,black_luggage,"
valise",3411,82,luggage,[],31,Yes,,,4,2,oui,francais,francais,Male,preAndPostAge8,francais,,CA,Chrome,Windows,1080,1920,6.8285,
112,condition1,purple_tent,"
tente",1555,83,tent,[],31,Yes,,,4,2,oui,francais,francais,Male,preAndPostAge8,francais,,CA,Chrome,Windows,1080,1920,6.8285,
112,condition1,purple_calendar,"
calendrier",4248,84,calendar,[],31,Yes,,,4,2,oui,francais,francais,Male,preAndPostAge8,francais,,CA,Chrome,Windows,1080,1920,6.8285,
112,condition1,green_shell,"
coquillage",3328,85,shell,[],31,Yes,,,4,2,oui,francais,francais,Male,preAndPostAge8,francais,,CA,Chrome,Windows,1080,1920,6.8285,
112,condition1,orange_helicopter,"
hélicoptère",5224,86,helicopter,[],31,Yes,,,4,2,oui,francais,francais,Male,preAndPostAge8,francais,,CA,Chrome,Windows,1080,1920,6.8285,
112,condition1,purple_basket,"
panier",2712,87,basket,[],31,Yes,,,4,2,oui,francais,francais,Male,preAndPostAge8,francais,,CA,Chrome,Windows,1080,1920,6.8285,
112,condition1,white_present,"
cadeau",1880,88,present,[],31,Yes,,,4,2,oui,francais,francais,Male,preAndPostAge8,francais,,CA,Chrome,Windows,1080,1920,6.8285,
112,condition1,red_butterfly,"
papilon",2144,89,butterfly,[],31,Yes,,,4,2,oui,francais,francais,Male,preAndPostAge8,francais,,CA,Chrome,Windows,1080,1920,6.8285,
112,condition1,blue_calculator,"
calculatrice",4240,90,calculator,[],31,Yes,,,4,2,oui,francais,francais,Male,preAndPostAge8,francais,,CA,Chrome,Windows,1080,1920,6.8285,
112,condition1,red_notebook,"
cahier",2720,91,notebook,[],31,Yes,,,4,2,oui,francais,francais,Male,preAndPostAge8,francais,,CA,Chrome,Windows,1080,1920,6.8285,
112,condition1,black_piano,"
panio",2016,92,piano,[],31,Yes,,,4,2,oui,francais,francais,Male,preAndPostAge8,francais,,CA,Chrome,Windows,1080,1920,6.8285,
112,condition1,black_airplane,"
avion",1912,93,airplane,[],31,Yes,,,4,2,oui,francais,francais,Male,preAndPostAge8,francais,,CA,Chrome,Windows,1080,1920,6.8285,
112,condition1,green_drum,"
tambour",8304,94,drum,[],31,Yes,,,4,2,oui,francais,francais,Male,preAndPostAge8,francais,,CA,Chrome,Windows,1080,1920,6.8285,
112,condition1,purple_spoon,"
cuillière",4032,95,spoon,[],31,Yes,,,4,2,oui,francais,francais,Male,preAndPostAge8,francais,,CA,Chrome,Windows,1080,1920,6.8285,
112,condition1,blue_lamp,"
lampe",2168,96,lamp,[],31,Yes,,,4,2,oui,francais,francais,Male,preAndPostAge8,francais,,CA,Chrome,Windows,1080,1920,6.8285,
112,condition1,blue_billiardball,"
boule de billiard",4544,97,billiardball,[],31,Yes,,,4,2,oui,francais,francais,Male,preAndPostAge8,francais,,CA,Chrome,Windows,1080,1920,6.8285,
112,condition1,white_napkin,"
napquine",5032,98,napkin,[],31,Yes,,,4,2,oui,francais,francais,Male,preAndPostAge8,francais,,CA,Chrome,Windows,1080,1920,6.8285,
112,condition1,orange_radio,"
radio",2880,99,radio,[],31,Yes,,,4,2,oui,francais,francais,Male,preAndPostAge8,francais,,CA,Chrome,Windows,1080,1920,6.8285,
112,condition1,blue_candle,"
chandelle",3120,100,candle,[],31,Yes,,,4,2,oui,francais,francais,Male,preAndPostAge8,francais,,CA,Chrome,Windows,1080,1920,6.8285,
112,condition1,purple_sponge,"
efface",4728,101,sponge,[],31,Yes,,,4,2,oui,francais,francais,Male,preAndPostAge8,francais,,CA,Chrome,Windows,1080,1920,6.8285,
112,condition1,yellow_belt,"
ceinture",2512,102,belt,[],31,Yes,,,4,2,oui,francais,francais,Male,preAndPostAge8,francais,,CA,Chrome,Windows,1080,1920,6.8285,
112,condition1,yellow_shirt,"
chandail",2928,103,shirt,[],31,Yes,,,4,2,oui,francais,francais,Male,preAndPostAge8,francais,,CA,Chrome,Windows,1080,1920,6.8285,
112,condition1,white_ruler,"
règle",2648,104,ruler,[],31,Yes,,,4,2,oui,francais,francais,Male,preAndPostAge8,francais,,CA,Chrome,Windows,1080,1920,6.8285,
112,condition1,white_chair,"
chaise",1808,105,chair,[],31,Yes,,,4,2,oui,francais,francais,Male,preAndPostAge8,francais,,CA,Chrome,Windows,1080,1920,6.8285,
112,condition1,green_lock,"
cadenas",2736,106,lock,[],31,Yes,,,4,2,oui,francais,francais,Male,preAndPostAge8,francais,,CA,Chrome,Windows,1080,1920,6.8285,
21,condition1,yellow_flower,fleur,2782,2,flower,[],24,Yes,c'était fun,,4,2,Oui,français,français,Male,preAndPostAge8,"anglais, espagnol",Non,FR,Chrome,Linux,864,1536,5.819916666666667,
21,condition1,red_butterfly,"
papillon",2644,3,butterfly,[],24,Yes,c'était fun,,4,2,Oui,français,français,Male,preAndPostAge8,"anglais, espagnol",Non,FR,Chrome,Linux,864,1536,5.819916666666667,
21,condition1,white_bike,"
vélo",1393,4,bike,[],24,Yes,c'était fun,,4,2,Oui,français,français,Male,preAndPostAge8,"anglais, espagnol",Non,FR,Chrome,Linux,864,1536,5.819916666666667,
21,condition1,blue_comb,"
peigne",1942,5,comb,[],24,Yes,c'était fun,,4,2,Oui,français,français,Male,preAndPostAge8,"anglais, espagnol",Non,FR,Chrome,Linux,864,1536,5.819916666666667,
21,condition1,blue_mug,"
tasse",2140,6,mug,[],24,Yes,c'était fun,,4,2,Oui,français,français,Male,preAndPostAge8,"anglais, espagnol",Non,FR,Chrome,Linux,864,1536,5.819916666666667,
21,condition1,black_tent,"
tente",2356,7,tent,[],24,Yes,c'était fun,,4,2,Oui,français,français,Male,preAndPostAge8,"anglais, espagnol",Non,FR,Chrome,Linux,864,1536,5.819916666666667,
21,condition1,yellow_scarf,"
écharpe",1963,8,scarf,[],24,Yes,c'était fun,,4,2,Oui,français,français,Male,preAndPostAge8,"anglais, espagnol",Non,FR,Chrome,Linux,864,1536,5.819916666666667,
21,condition1,yellow_mouse,"
souris",2309,9,mouse,[],24,Yes,c'était fun,,4,2,Oui,français,français,Male,preAndPostAge8,"anglais, espagnol",Non,FR,Chrome,Linux,864,1536,5.819916666666667,
21,condition1,black_rope,"
cable",2791,10,rope,[],24,Yes,c'était fun,,4,2,Oui,français,français,Male,preAndPostAge8,"anglais, espagnol",Non,FR,Chrome,Linux,864,1536,5.819916666666667,
21,condition1,red_stapler,"
agrafeuse",2881,11,stapler,[],24,Yes,c'était fun,,4,2,Oui,français,français,Male,preAndPostAge8,"anglais, espagnol",Non,FR,Chrome,Linux,864,1536,5.819916666666667,
21,condition1,red_dress,"
robe",3775,12,dress,[],24,Yes,c'était fun,,4,2,Oui,français,français,Male,preAndPostAge8,"anglais, espagnol",Non,FR,Chrome,Linux,864,1536,5.819916666666667,
21,condition1,orange_bowl,"
bol",1531,13,bowl,[],24,Yes,c'était fun,,4,2,Oui,français,français,Male,preAndPostAge8,"anglais, espagnol",Non,FR,Chrome,Linux,864,1536,5.819916666666667,
21,condition1,yellow_present,"
cadeau",2281,14,present,[],24,Yes,c'était fun,,4,2,Oui,français,français,Male,preAndPostAge8,"anglais, espagnol",Non,FR,Chrome,Linux,864,1536,5.819916666666667,
21,condition1,purple_radio,"
boombox",2566,15,radio,[],24,Yes,c'était fun,,4,2,Oui,français,français,Male,preAndPostAge8,"anglais, espagnol",Non,FR,Chrome,Linux,864,1536,5.819916666666667,
21,condition1,red_guitar,"
basse",2082,16,guitar,[],24,Yes,c'était fun,,4,2,Oui,français,français,Male,preAndPostAge8,"anglais, espagnol",Non,FR,Chrome,Linux,864,1536,5.819916666666667,
21,condition1,purple_knife,"
couteau",2466,17,knife,[],24,Yes,c'était fun,,4,2,Oui,français,français,Male,preAndPostAge8,"anglais, espagnol",Non,FR,Chrome,Linux,864,1536,5.819916666666667,
21,condition1,blue_ring,"
anneau",2247,18,ring,[],24,Yes,c'était fun,,4,2,Oui,français,français,Male,preAndPostAge8,"anglais, espagnol",Non,FR,Chrome,Linux,864,1536,5.819916666666667,
21,condition1,green_screwdriver,"
tournevis",3543,19,screwdriver,[],24,Yes,c'était fun,,4,2,Oui,français,français,Male,preAndPostAge8,"anglais, espagnol",Non,FR,Chrome,Linux,864,1536,5.819916666666667,
21,condition1,red_wallet,"
portefeuille",4559,20,wallet,[],24,Yes,c'était fun,,4,2,Oui,français,français,Male,preAndPostAge8,"anglais, espagnol",Non,FR,Chrome,Linux,864,1536,5.819916666666667,
21,condition1,red_door,"
porte",2742,21,door,[],24,Yes,c'était fun,,4,2,Oui,français,français,Male,preAndPostAge8,"anglais, espagnol",Non,FR,Chrome,Linux,864,1536,5.819916666666667,
21,condition1,yellow_cap,"
chapeau",2185,22,cap,[],24,Yes,c'était fun,,4,2,Oui,français,français,Male,preAndPostAge8,"anglais, espagnol",Non,FR,Chrome,Linux,864,1536,5.819916666666667,
21,condition1,white_magnifyingglass,"
loupe",1847,23,magnifyingglass,[],24,Yes,c'était fun,,4,2,Oui,français,français,Male,preAndPostAge8,"anglais, espagnol",Non,FR,Chrome,Linux,864,1536,5.819916666666667,
21,condition1,purple_fish,"
poisson",2801,24,fish,[],24,Yes,c'était fun,,4,2,Oui,français,français,Male,preAndPostAge8,"anglais, espagnol",Non,FR,Chrome,Linux,864,1536,5.819916666666667,
21,condition1,white_armchair,"
siège",3719,25,armchair,[],24,Yes,c'était fun,,4,2,Oui,français,français,Male,preAndPostAge8,"anglais, espagnol",Non,FR,Chrome,Linux,864,1536,5.819916666666667,
21,condition1,red_frame,"
tableua",2142,26,frame,[],24,Yes,c'était fun,,4,2,Oui,français,français,Male,preAndPostAge8,"anglais, espagnol",Non,FR,Chrome,Linux,864,1536,5.819916666666667,
21,condition1,green_sock,"
chausette",3559,27,sock,[],24,Yes,c'était fun,,4,2,Oui,français,français,Male,preAndPostAge8,"anglais, espagnol",Non,FR,Chrome,Linux,864,1536,5.819916666666667,
21,condition1,green_purse,"
sac",3038,28,purse,[],24,Yes,c'était fun,,4,2,Oui,français,français,Male,preAndPostAge8,"anglais, espagnol",Non,FR,Chrome,Linux,864,1536,5.819916666666667,
21,condition1,white_key,"
clé",1251,29,key,[],24,Yes,c'était fun,,4,2,Oui,français,français,Male,preAndPostAge8,"anglais, espagnol",Non,FR,Chrome,Linux,864,1536,5.819916666666667,
21,condition1,green_shield,"
bouclier",2235,30,shield,[],24,Yes,c'était fun,,4,2,Oui,français,français,Male,preAndPostAge8,"anglais, espagnol",Non,FR,Chrome,Linux,864,1536,5.819916666666667,
21,condition1,purple_luggage,"
valise",3463,31,luggage,[],24,Yes,c'était fun,,4,2,Oui,français,français,Male,preAndPostAge8,"anglais, espagnol",Non,FR,Chrome,Linux,864,1536,5.819916666666667,
21,condition1,orange_truck,"
camion",1933,32,truck,[],24,Yes,c'était fun,,4,2,Oui,français,français,Male,preAndPostAge8,"anglais, espagnol",Non,FR,Chrome,Linux,864,1536,5.819916666666667,
21,condition1,purple_die,"
dé",1162,33,die,[],24,Yes,c'était fun,,4,2,Oui,français,français,Male,preAndPostAge8,"anglais, espagnol",Non,FR,Chrome,Linux,864,1536,5.819916666666667,
21,condition1,blue_fence,"
barrière",7051,34,fence,[],24,Yes,c'était fun,,4,2,Oui,français,français,Male,preAndPostAge8,"anglais, espagnol",Non,FR,Chrome,Linux,864,1536,5.819916666666667,
21,condition1,green_binoculars,"
jumelles",2408,35,binoculars,[],24,Yes,c'était fun,,4,2,Oui,français,français,Male,preAndPostAge8,"anglais, espagnol",Non,FR,Chrome,Linux,864,1536,5.819916666666667,
21,condition1,orange_basket,"
panier",2630,36,basket,[],24,Yes,c'était fun,,4,2,Oui,français,français,Male,preAndPostAge8,"anglais, espagnol",Non,FR,Chrome,Linux,864,1536,5.819916666666667,
21,condition1,black_vase,"
urne",1658,37,vase,[],24,Yes,c'était fun,,4,2,Oui,français,français,Male,preAndPostAge8,"anglais, espagnol",Non,FR,Chrome,Linux,864,1536,5.819916666666667,
21,condition1,white_table,"
table",2131,38,table,[],24,Yes,c'était fun,,4,2,Oui,français,français,Male,preAndPostAge8,"anglais, espagnol",Non,FR,Chrome,Linux,864,1536,5.819916666666667,
21,condition1,purple_bench,"
banc",2171,39,bench,[],24,Yes,c'était fun,,4,2,Oui,français,français,Male,preAndPostAge8,"anglais, espagnol",Non,FR,Chrome,Linux,864,1536,5.819916666666667,
21,condition1,yellow_lamp,"
lampe",2196,40,lamp,[],24,Yes,c'était fun,,4,2,Oui,français,français,Male,preAndPostAge8,"anglais, espagnol",Non,FR,Chrome,Linux,864,1536,5.819916666666667,
21,condition1,green_lipstick,"
rouge à lèvres",5606,41,lipstick,[],24,Yes,c'était fun,,4,2,Oui,français,français,Male,preAndPostAge8,"anglais, espagnol",Non,FR,Chrome,Linux,864,1536,5.819916666666667,
21,condition1,yellow_napkin,"
serviette",2375,42,napkin,[],24,Yes,c'était fun,,4,2,Oui,français,français,Male,preAndPostAge8,"anglais, espagnol",Non,FR,Chrome,Linux,864,1536,5.819916666666667,
21,condition1,white_switch,"
interrupteur",2877,43,switch,[],24,Yes,c'était fun,,4,2,Oui,français,français,Male,preAndPostAge8,"anglais, espagnol",Non,FR,Chrome,Linux,864,1536,5.819916666666667,
21,condition1,green_dresser,"
commode",2419,44,dresser,[],24,Yes,c'était fun,,4,2,Oui,français,français,Male,preAndPostAge8,"anglais, espagnol",Non,FR,Chrome,Linux,864,1536,5.819916666666667,
21,condition1,red_dustpan,"
balai",4833,45,dustpan,[],24,Yes,c'était fun,,4,2,Oui,français,français,Male,preAndPostAge8,"anglais, espagnol",Non,FR,Chrome,Linux,864,1536,5.819916666666667,
21,condition1,purple_shell,"
coquillage",3462,46,shell,[],24,Yes,c'était fun,,4,2,Oui,français,français,Male,preAndPostAge8,"anglais, espagnol",Non,FR,Chrome,Linux,864,1536,5.819916666666667,
21,condition1,yellow_crown,"
couronne",3013,47,crown,[],24,Yes,c'était fun,,4,2,Oui,français,français,Male,preAndPostAge8,"anglais, espagnol",Non,FR,Chrome,Linux,864,1536,5.819916666666667,
21,condition1,purple_piano,"
pianp",2582,48,piano,[],24,Yes,c'était fun,,4,2,Oui,français,français,Male,preAndPostAge8,"anglais, espagnol",Non,FR,Chrome,Linux,864,1536,5.819916666666667,
21,condition1,green_airplane,"
avion",2647,49,airplane,[],24,Yes,c'était fun,,4,2,Oui,français,français,Male,preAndPostAge8,"anglais, espagnol",Non,FR,Chrome,Linux,864,1536,5.819916666666667,
21,condition1,green_cake,"
gateau",2476,50,cake,[],24,Yes,c'était fun,,4,2,Oui,français,français,Male,preAndPostAge8,"anglais, espagnol",Non,FR,Chrome,Linux,864,1536,5.819916666666667,
21,condition1,white_shoe,"
chaussure",3565,51,shoe,[],24,Yes,c'était fun,,4,2,Oui,français,français,Male,preAndPostAge8,"anglais, espagnol",Non,FR,Chrome,Linux,864,1536,5.819916666666667,
21,condition1,black_fork,"
fourchette",3486,52,fork,[],24,Yes,c'était fun,,4,2,Oui,français,français,Male,preAndPostAge8,"anglais, espagnol",Non,FR,Chrome,Linux,864,1536,5.819916666666667,
21,condition1,blue_rug,"
serviette",3488,53,rug,[],24,Yes,c'était fun,,4,2,Oui,français,français,Male,preAndPostAge8,"anglais, espagnol",Non,FR,Chrome,Linux,864,1536,5.819916666666667,
21,condition1,green_bonbon,"
bonbon",2528,54,bonbon,[],24,Yes,c'était fun,,4,2,Oui,français,français,Male,preAndPostAge8,"anglais, espagnol",Non,FR,Chrome,Linux,864,1536,5.819916666666667,
21,condition1,black_slipper,"
chaussure",2906,55,slipper,[],24,Yes,c'était fun,,4,2,Oui,français,français,Male,preAndPostAge8,"anglais, espagnol",Non,FR,Chrome,Linux,864,1536,5.819916666666667,
21,condition1,red_calculator,"
calculatrice",2980,56,calculator,[],24,Yes,c'était fun,,4,2,Oui,français,français,Male,preAndPostAge8,"anglais, espagnol",Non,FR,Chrome,Linux,864,1536,5.819916666666667,
21,condition1,orange_hammer,"
marteau",3917,57,hammer,[],24,Yes,c'était fun,,4,2,Oui,français,français,Male,preAndPostAge8,"anglais, espagnol",Non,FR,Chrome,Linux,864,1536,5.819916666666667,
21,condition1,green_ladle,"
louche",1977,58,ladle,[],24,Yes,c'était fun,,4,2,Oui,français,français,Male,preAndPostAge8,"anglais, espagnol",Non,FR,Chrome,Linux,864,1536,5.819916666666667,
21,condition1,white_mask,"
masque",4099,59,mask,[],24,Yes,c'était fun,,4,2,Oui,français,français,Male,preAndPostAge8,"anglais, espagnol",Non,FR,Chrome,Linux,864,1536,5.819916666666667,
21,condition1,yellow_binder,"
pochette",5800,60,binder,[],24,Yes,c'était fun,,4,2,Oui,français,français,Male,preAndPostAge8,"anglais, espagnol",Non,FR,Chrome,Linux,864,1536,5.819916666666667,
21,condition1,red_belt,"
ceinture",2095,61,belt,[],24,Yes,c'était fun,,4,2,Oui,français,français,Male,preAndPostAge8,"anglais, espagnol",Non,FR,Chrome,Linux,864,1536,5.819916666666667,
21,condition1,purple_plate,"
sous-tasse",3193,62,plate,[],24,Yes,c'était fun,,4,2,Oui,français,français,Male,preAndPostAge8,"anglais, espagnol",Non,FR,Chrome,Linux,864,1536,5.819916666666667,
21,condition1,white_sword,"
couteau",2806,63,sword,[],24,Yes,c'était fun,,4,2,Oui,français,français,Male,preAndPostAge8,"anglais, espagnol",Non,FR,Chrome,Linux,864,1536,5.819916666666667,
21,condition1,purple_tv,"
télé",2686,64,tv,[],24,Yes,c'était fun,,4,2,Oui,français,français,Male,preAndPostAge8,"anglais, espagnol",Non,FR,Chrome,Linux,864,1536,5.819916666666667,
21,condition1,blue_shirt,"
t-shirt",4044,65,shirt,[],24,Yes,c'était fun,,4,2,Oui,français,français,Male,preAndPostAge8,"anglais, espagnol",Non,FR,Chrome,Linux,864,1536,5.819916666666667,
21,condition1,purple_duck,"
canard",1693,66,duck,[],24,Yes,c'était fun,,4,2,Oui,français,français,Male,preAndPostAge8,"anglais, espagnol",Non,FR,Chrome,Linux,864,1536,5.819916666666667,
21,condition1,orange_boot,"
botte",2075,67,boot,[],24,Yes,c'était fun,,4,2,Oui,français,français,Male,preAndPostAge8,"anglais, espagnol",Non,FR,Chrome,Linux,864,1536,5.819916666666667,
21,condition1,yellow_ornament,"
boule",2754,68,ornament,[],24,Yes,c'était fun,,4,2,Oui,français,français,Male,preAndPostAge8,"anglais, espagnol",Non,FR,Chrome,Linux,864,1536,5.819916666666667,
21,condition1,blue_notebook,"
cahier",1979,69,notebook,[],24,Yes,c'était fun,,4,2,Oui,français,français,Male,preAndPostAge8,"anglais, espagnol",Non,FR,Chrome,Linux,864,1536,5.819916666666667,
21,condition1,green_bandaid,"
pansement",2623,70,bandaid,[],24,Yes,c'était fun,,4,2,Oui,français,français,Male,preAndPostAge8,"anglais, espagnol",Non,FR,Chrome,Linux,864,1536,5.819916666666667,
21,condition1,blue_chair,"
chaise",2003,71,chair,[],24,Yes,c'était fun,,4,2,Oui,français,français,Male,preAndPostAge8,"anglais, espagnol",Non,FR,Chrome,Linux,864,1536,5.819916666666667,
21,condition1,purple_camera,"
appareil photo",3361,72,camera,[],24,Yes,c'était fun,,4,2,Oui,français,français,Male,preAndPostAge8,"anglais, espagnol",Non,FR,Chrome,Linux,864,1536,5.819916666666667,
21,condition1,orange_ribbon,"
noeud",2958,73,ribbon,[],24,Yes,c'était fun,,4,2,Oui,français,français,Male,preAndPostAge8,"anglais, espagnol",Non,FR,Chrome,Linux,864,1536,5.819916666666667,
21,condition1,blue_bucket,"
seau",1844,74,bucket,[],24,Yes,c'était fun,,4,2,Oui,français,français,Male,preAndPostAge8,"anglais, espagnol",Non,FR,Chrome,Linux,864,1536,5.819916666666667,
21,condition1,purple_umbrella,"
parapluie",3797,75,umbrella,[],24,Yes,c'était fun,,4,2,Oui,français,français,Male,preAndPostAge8,"anglais, espagnol",Non,FR,Chrome,Linux,864,1536,5.819916666666667,
21,condition1,black_sponge,"
brosse",2875,76,sponge,[],24,Yes,c'était fun,,4,2,Oui,français,français,Male,preAndPostAge8,"anglais, espagnol",Non,FR,Chrome,Linux,864,1536,5.819916666666667,
21,condition1,orange_box,"
boite",2328,77,box,[],24,Yes,c'était fun,,4,2,Oui,français,français,Male,preAndPostAge8,"anglais, espagnol",Non,FR,Chrome,Linux,864,1536,5.819916666666667,
21,condition1,purple_tie,"
cravate",2591,78,tie,[],24,Yes,c'était fun,,4,2,Oui,français,français,Male,preAndPostAge8,"anglais, espagnol",Non,FR,Chrome,Linux,864,1536,5.819916666666667,
21,condition1,red_candle,"
bougie",2059,79,candle,[],24,Yes,c'était fun,,4,2,Oui,français,français,Male,preAndPostAge8,"anglais, espagnol",Non,FR,Chrome,Linux,864,1536,5.819916666666667,
21,condition1,orange_spoon,"
cuillère",2310,80,spoon,[],24,Yes,c'était fun,,4,2,Oui,français,français,Male,preAndPostAge8,"anglais, espagnol",Non,FR,Chrome,Linux,864,1536,5.819916666666667,
21,condition1,purple_drum,"
tambour",2444,81,drum,[],24,Yes,c'était fun,,4,2,Oui,français,français,Male,preAndPostAge8,"anglais, espagnol",Non,FR,Chrome,Linux,864,1536,5.819916666666667,
21,condition1,blue_iron,"
fer",3182,82,iron,[],24,Yes,c'était fun,,4,2,Oui,français,français,Male,preAndPostAge8,"anglais, espagnol",Non,FR,Chrome,Linux,864,1536,5.819916666666667,
21,condition1,green_whistle,"
siflet",1926,83,whistle,[],24,Yes,c'était fun,,4,2,Oui,français,français,Male,preAndPostAge8,"anglais, espagnol",Non,FR,Chrome,Linux,864,1536,5.819916666666667,
21,condition1,black_remote,"
télécommande",2965,84,remote,[],24,Yes,c'était fun,,4,2,Oui,français,français,Male,preAndPostAge8,"anglais, espagnol",Non,FR,Chrome,Linux,864,1536,5.819916666666667,
21,condition1,white_pencil,"
crayon",2886,85,pencil,[],24,Yes,c'était fun,,4,2,Oui,français,français,Male,preAndPostAge8,"anglais, espagnol",Non,FR,Chrome,Linux,864,1536,5.819916666666667,
21,condition1,green_microscope,"
microscope",2724,86,microscope,[],24,Yes,c'était fun,,4,2,Oui,français,français,Male,preAndPostAge8,"anglais, espagnol",Non,FR,Chrome,Linux,864,1536,5.819916666666667,
21,condition1,red_coathanger,"
ceintre",1562,87,coathanger,[],24,Yes,c'était fun,,4,2,Oui,français,français,Male,preAndPostAge8,"anglais, espagnol",Non,FR,Chrome,Linux,864,1536,5.819916666666667,
21,condition1,green_glove,"
gant",1878,88,glove,[],24,Yes,c'était fun,,4,2,Oui,français,français,Male,preAndPostAge8,"anglais, espagnol",Non,FR,Chrome,Linux,864,1536,5.819916666666667,
21,condition1,yellow_balloon,"
ballon",2935,89,balloon,[],24,Yes,c'était fun,,4,2,Oui,français,français,Male,preAndPostAge8,"anglais, espagnol",Non,FR,Chrome,Linux,864,1536,5.819916666666667,
21,condition1,orange_necklace,"
collier",2351,90,necklace,[],24,Yes,c'était fun,,4,2,Oui,français,français,Male,preAndPostAge8,"anglais, espagnol",Non,FR,Chrome,Linux,864,1536,5.819916666666667,
21,condition1,white_book,"
livre",2101,91,book,[],24,Yes,c'était fun,,4,2,Oui,français,français,Male,preAndPostAge8,"anglais, espagnol",Non,FR,Chrome,Linux,864,1536,5.819916666666667,
21,condition1,yellow_ruler,"
règle",2333,92,ruler,[],24,Yes,c'était fun,,4,2,Oui,français,français,Male,preAndPostAge8,"anglais, espagnol",Non,FR,Chrome,Linux,864,1536,5.819916666666667,
21,condition1,orange_helicopter,"
hélicoptère",4596,93,helicopter,[],24,Yes,c'était fun,,4,2,Oui,français,français,Male,preAndPostAge8,"anglais, espagnol",Non,FR,Chrome,Linux,864,1536,5.819916666666667,
21,condition1,white_yarn,"
ficelle",2730,94,yarn,[],24,Yes,c'était fun,,4,2,Oui,français,français,Male,preAndPostAge8,"anglais, espagnol",Non,FR,Chrome,Linux,864,1536,5.819916666666667,
21,condition1,white_clock,"
réveil",2098,95,clock,[],24,Yes,c'était fun,,4,2,Oui,français,français,Male,preAndPostAge8,"anglais, espagnol",Non,FR,Chrome,Linux,864,1536,5.819916666666667,
21,condition1,white_phone,"
téléphone",2526,96,phone,[],24,Yes,c'était fun,,4,2,Oui,français,français,Male,preAndPostAge8,"anglais, espagnol",Non,FR,Chrome,Linux,864,1536,5.819916666666667,
21,condition1,yellow_fryingpan,"
poêle à frire",7668,97,fryingpan,[],24,Yes,c'était fun,,4,2,Oui,français,français,Male,preAndPostAge8,"anglais, espagnol",Non,FR,Chrome,Linux,864,1536,5.819916666666667,
21,condition1,red_bracelet,bracele,2466,98,bracelet,[],24,Yes,c'était fun,,4,2,Oui,français,français,Male,preAndPostAge8,"anglais, espagnol",Non,FR,Chrome,Linux,864,1536,5.819916666666667,
21,condition1,black_lock,"
cadenas",2410,99,lock,[],24,Yes,c'était fun,,4,2,Oui,français,français,Male,preAndPostAge8,"anglais, espagnol",Non,FR,Chrome,Linux,864,1536,5.819916666666667,
21,condition1,green_robot,"
robot",1660,100,robot,[],24,Yes,c'était fun,,4,2,Oui,français,français,Male,preAndPostAge8,"anglais, espagnol",Non,FR,Chrome,Linux,864,1536,5.819916666666667,
21,condition1,black_razor,"
rasoir",2587,101,razor,[],24,Yes,c'était fun,,4,2,Oui,français,français,Male,preAndPostAge8,"anglais, espagnol",Non,FR,Chrome,Linux,864,1536,5.819916666666667,
21,condition1,orange_calendar,"
calendrier",2265,102,calendar,[],24,Yes,c'était fun,,4,2,Oui,français,français,Male,preAndPostAge8,"anglais, espagnol",Non,FR,Chrome,Linux,864,1536,5.819916666666667,
21,condition1,blue_cushion,"
coussin",2551,103,cushion,[],24,Yes,c'était fun,,4,2,Oui,français,français,Male,preAndPostAge8,"anglais, espagnol",Non,FR,Chrome,Linux,864,1536,5.819916666666667,
21,condition1,white_bed,"
lit",1770,104,bed,[],24,Yes,c'était fun,,4,2,Oui,français,français,Male,preAndPostAge8,"anglais, espagnol",Non,FR,Chrome,Linux,864,1536,5.819916666666667,
21,condition1,white_billiardball,"
boule",2208,105,billiardball,[],24,Yes,c'était fun,,4,2,Oui,français,français,Male,preAndPostAge8,"anglais, espagnol",Non,FR,Chrome,Linux,864,1536,5.819916666666667,
21,condition1,green_shovel,"
pelle",3053,106,shovel,[],24,Yes,c'était fun,,4,2,Oui,français,français,Male,preAndPostAge8,"anglais, espagnol",Non,FR,Chrome,Linux,864,1536,5.819916666666667,
22,condition1,orange_duck,Canard en plastique,11455,2,duck,[],22,Yes,,Nouvelle aquitaine,-1,1,oui,français,français,Male,preAge8,"anglais, espagnol",non,FR,Firefox,Windows,1080,1920,9.223033333333332,
22,condition1,orange_shield,"
Blason",3089,3,shield,[],22,Yes,,Nouvelle aquitaine,-1,1,oui,français,français,Male,preAge8,"anglais, espagnol",non,FR,Firefox,Windows,1080,1920,9.223033333333332,
22,condition1,yellow_dustpan,"
Pelle",2846,4,dustpan,[],22,Yes,,Nouvelle aquitaine,-1,1,oui,français,français,Male,preAge8,"anglais, espagnol",non,FR,Firefox,Windows,1080,1920,9.223033333333332,
22,condition1,black_glove,"
Gant",3181,5,glove,[],22,Yes,,Nouvelle aquitaine,-1,1,oui,français,français,Male,preAge8,"anglais, espagnol",non,FR,Firefox,Windows,1080,1920,9.223033333333332,
22,condition1,orange_bandaid,"
Pansement",3638,6,bandaid,[],22,Yes,,Nouvelle aquitaine,-1,1,oui,français,français,Male,preAge8,"anglais, espagnol",non,FR,Firefox,Windows,1080,1920,9.223033333333332,
22,condition1,yellow_pencil,"
Crayon",3195,7,pencil,[],22,Yes,,Nouvelle aquitaine,-1,1,oui,français,français,Male,preAge8,"anglais, espagnol",non,FR,Firefox,Windows,1080,1920,9.223033333333332,
22,condition1,yellow_mug,"
Tasse",3617,8,mug,[],22,Yes,,Nouvelle aquitaine,-1,1,oui,français,français,Male,preAge8,"anglais, espagnol",non,FR,Firefox,Windows,1080,1920,9.223033333333332,
22,condition1,purple_lipstick,"
Rouge à lèvre",8969,9,lipstick,[],22,Yes,,Nouvelle aquitaine,-1,1,oui,français,français,Male,preAge8,"anglais, espagnol",non,FR,Firefox,Windows,1080,1920,9.223033333333332,
22,condition1,orange_tv,"
Télévision",5599,10,tv,[],22,Yes,,Nouvelle aquitaine,-1,1,oui,français,français,Male,preAge8,"anglais, espagnol",non,FR,Firefox,Windows,1080,1920,9.223033333333332,
22,condition1,green_bowl,"
Bol",2581,11,bowl,[],22,Yes,,Nouvelle aquitaine,-1,1,oui,français,français,Male,preAge8,"anglais, espagnol",non,FR,Firefox,Windows,1080,1920,9.223033333333332,
22,condition1,orange_plate,"
Assiette",3696,12,plate,[],22,Yes,,Nouvelle aquitaine,-1,1,oui,français,français,Male,preAge8,"anglais, espagnol",non,FR,Firefox,Windows,1080,1920,9.223033333333332,
22,condition1,red_coathanger,"
Cintre",5090,13,coathanger,[],22,Yes,,Nouvelle aquitaine,-1,1,oui,français,français,Male,preAge8,"anglais, espagnol",non,FR,Firefox,Windows,1080,1920,9.223033333333332,
22,condition1,black_razor,"
Rasoir",2496,14,razor,[],22,Yes,,Nouvelle aquitaine,-1,1,oui,français,français,Male,preAge8,"anglais, espagnol",non,FR,Firefox,Windows,1080,1920,9.223033333333332,
22,condition1,white_ring,"
Bague",5752,15,ring,[],22,Yes,,Nouvelle aquitaine,-1,1,oui,français,français,Male,preAge8,"anglais, espagnol",non,FR,Firefox,Windows,1080,1920,9.223033333333332,
22,condition1,black_whistle,"
Siffle",2887,16,whistle,[],22,Yes,,Nouvelle aquitaine,-1,1,oui,français,français,Male,preAge8,"anglais, espagnol",non,FR,Firefox,Windows,1080,1920,9.223033333333332,
22,condition1,blue_iron,"
Fer à repasser",6203,17,iron,[],22,Yes,,Nouvelle aquitaine,-1,1,oui,français,français,Male,preAge8,"anglais, espagnol",non,FR,Firefox,Windows,1080,1920,9.223033333333332,
22,condition1,green_fork,"
Assiette",7344,18,fork,[],22,Yes,,Nouvelle aquitaine,-1,1,oui,français,français,Male,preAge8,"anglais, espagnol",non,FR,Firefox,Windows,1080,1920,9.223033333333332,
22,condition1,green_umbrella,"
Parapluie",3900,19,umbrella,[],22,Yes,,Nouvelle aquitaine,-1,1,oui,français,français,Male,preAge8,"anglais, espagnol",non,FR,Firefox,Windows,1080,1920,9.223033333333332,
22,condition1,red_candle,"
Bougie",3494,20,candle,[],22,Yes,,Nouvelle aquitaine,-1,1,oui,français,français,Male,preAge8,"anglais, espagnol",non,FR,Firefox,Windows,1080,1920,9.223033333333332,
22,condition1,white_flower,"
Fleur",2999,21,flower,[],22,Yes,,Nouvelle aquitaine,-1,1,oui,français,français,Male,preAge8,"anglais, espagnol",non,FR,Firefox,Windows,1080,1920,9.223033333333332,
22,condition1,purple_cake,"
Gateau",3234,22,cake,[],22,Yes,,Nouvelle aquitaine,-1,1,oui,français,français,Male,preAge8,"anglais, espagnol",non,FR,Firefox,Windows,1080,1920,9.223033333333332,
22,condition1,blue_cap,"
casquette",3642,23,cap,[],22,Yes,,Nouvelle aquitaine,-1,1,oui,français,français,Male,preAge8,"anglais, espagnol",non,FR,Firefox,Windows,1080,1920,9.223033333333332,
22,condition1,orange_shovel,"
pelle",2281,24,shovel,[],22,Yes,,Nouvelle aquitaine,-1,1,oui,français,français,Male,preAge8,"anglais, espagnol",non,FR,Firefox,Windows,1080,1920,9.223033333333332,
22,condition1,blue_stapler,"
agraffeuse",3899,25,stapler,[],22,Yes,,Nouvelle aquitaine,-1,1,oui,français,français,Male,preAge8,"anglais, espagnol",non,FR,Firefox,Windows,1080,1920,9.223033333333332,
22,condition1,yellow_present,"
cadeau",3597,26,present,[],22,Yes,,Nouvelle aquitaine,-1,1,oui,français,français,Male,preAge8,"anglais, espagnol",non,FR,Firefox,Windows,1080,1920,9.223033333333332,
22,condition1,orange_boot,chaussure,8755,27,boot,[],22,Yes,,Nouvelle aquitaine,-1,1,oui,français,français,Male,preAge8,"anglais, espagnol",non,FR,Firefox,Windows,1080,1920,9.223033333333332,
22,condition1,orange_calendar,"
calendrier",3305,28,calendar,[],22,Yes,,Nouvelle aquitaine,-1,1,oui,français,français,Male,preAge8,"anglais, espagnol",non,FR,Firefox,Windows,1080,1920,9.223033333333332,
22,condition1,yellow_bike,"
vélo",3022,29,bike,[],22,Yes,,Nouvelle aquitaine,-1,1,oui,français,français,Male,preAge8,"anglais, espagnol",non,FR,Firefox,Windows,1080,1920,9.223033333333332,
22,condition1,red_armchair,"
Fauteuil",4319,30,armchair,[],22,Yes,,Nouvelle aquitaine,-1,1,oui,français,français,Male,preAge8,"anglais, espagnol",non,FR,Firefox,Windows,1080,1920,9.223033333333332,
22,condition1,green_piano,"
piano",2991,31,piano,[],22,Yes,,Nouvelle aquitaine,-1,1,oui,français,français,Male,preAge8,"anglais, espagnol",non,FR,Firefox,Windows,1080,1920,9.223033333333332,
22,condition1,red_fryingpan,"
poelle",3350,32,fryingpan,[],22,Yes,,Nouvelle aquitaine,-1,1,oui,français,français,Male,preAge8,"anglais, espagnol",non,FR,Firefox,Windows,1080,1920,9.223033333333332,
22,condition1,purple_camera,"
appareil photo",6881,33,camera,[],22,Yes,,Nouvelle aquitaine,-1,1,oui,français,français,Male,preAge8,"anglais, espagnol",non,FR,Firefox,Windows,1080,1920,9.223033333333332,
22,condition1,orange_necklace,"
collier",3025,34,necklace,[],22,Yes,,Nouvelle aquitaine,-1,1,oui,français,français,Male,preAge8,"anglais, espagnol",non,FR,Firefox,Windows,1080,1920,9.223033333333332,
22,condition1,red_wallet,"
portefeuille",6741,35,wallet,[],22,Yes,,Nouvelle aquitaine,-1,1,oui,français,français,Male,preAge8,"anglais, espagnol",non,FR,Firefox,Windows,1080,1920,9.223033333333332,
22,condition1,black_dresser,"
armoire",3776,36,dresser,[],22,Yes,,Nouvelle aquitaine,-1,1,oui,français,français,Male,preAge8,"anglais, espagnol",non,FR,Firefox,Windows,1080,1920,9.223033333333332,
22,condition1,white_belt,"
ceinture",3222,37,belt,[],22,Yes,,Nouvelle aquitaine,-1,1,oui,français,français,Male,preAge8,"anglais, espagnol",non,FR,Firefox,Windows,1080,1920,9.223033333333332,
22,condition1,green_hammer,"
marteau",3654,38,hammer,[],22,Yes,,Nouvelle aquitaine,-1,1,oui,français,français,Male,preAge8,"anglais, espagnol",non,FR,Firefox,Windows,1080,1920,9.223033333333332,
22,condition1,blue_chair,"
chaise",4368,39,chair,[],22,Yes,,Nouvelle aquitaine,-1,1,oui,français,français,Male,preAge8,"anglais, espagnol",non,FR,Firefox,Windows,1080,1920,9.223033333333332,
22,condition1,blue_mask,"
masque",4192,40,mask,[],22,Yes,,Nouvelle aquitaine,-1,1,oui,français,français,Male,preAge8,"anglais, espagnol",non,FR,Firefox,Windows,1080,1920,9.223033333333332,
22,condition1,orange_box,"
carton",3232,41,box,[],22,Yes,,Nouvelle aquitaine,-1,1,oui,français,français,Male,preAge8,"anglais, espagnol",non,FR,Firefox,Windows,1080,1920,9.223033333333332,
22,condition1,red_yarn,"
pelote",4112,42,yarn,[],22,Yes,,Nouvelle aquitaine,-1,1,oui,français,français,Male,preAge8,"anglais, espagnol",non,FR,Firefox,Windows,1080,1920,9.223033333333332,
22,condition1,yellow_guitar,"
guitare",3120,43,guitar,[],22,Yes,,Nouvelle aquitaine,-1,1,oui,français,français,Male,preAge8,"anglais, espagnol",non,FR,Firefox,Windows,1080,1920,9.223033333333332,
22,condition1,green_radio,"
radio",4114,44,radio,[],22,Yes,,Nouvelle aquitaine,-1,1,oui,français,français,Male,preAge8,"anglais, espagnol",non,FR,Firefox,Windows,1080,1920,9.223033333333332,
22,condition1,black_shell,"
coquillage",7305,45,shell,[],22,Yes,,Nouvelle aquitaine,-1,1,oui,français,français,Male,preAge8,"anglais, espagnol",non,FR,Firefox,Windows,1080,1920,9.223033333333332,
22,condition1,purple_fish,"
poisson",10435,46,fish,[],22,Yes,,Nouvelle aquitaine,-1,1,oui,français,français,Male,preAge8,"anglais, espagnol",non,FR,Firefox,Windows,1080,1920,9.223033333333332,
22,condition1,yellow_binder,"
pochette",6194,47,binder,[],22,Yes,,Nouvelle aquitaine,-1,1,oui,français,français,Male,preAge8,"anglais, espagnol",non,FR,Firefox,Windows,1080,1920,9.223033333333332,
22,condition1,black_ladle,"
louche",6160,48,ladle,[],22,Yes,,Nouvelle aquitaine,-1,1,oui,français,français,Male,preAge8,"anglais, espagnol",non,FR,Firefox,Windows,1080,1920,9.223033333333332,
22,condition1,orange_die,"
dé",3839,49,die,[],22,Yes,,Nouvelle aquitaine,-1,1,oui,français,français,Male,preAge8,"anglais, espagnol",non,FR,Firefox,Windows,1080,1920,9.223033333333332,
22,condition1,yellow_switch,"bouton
",10456,50,switch,[],22,Yes,,Nouvelle aquitaine,-1,1,oui,français,français,Male,preAge8,"anglais, espagnol",non,FR,Firefox,Windows,1080,1920,9.223033333333332,
22,condition1,purple_vase,"
vase",3824,51,vase,[],22,Yes,,Nouvelle aquitaine,-1,1,oui,français,français,Male,preAge8,"anglais, espagnol",non,FR,Firefox,Windows,1080,1920,9.223033333333332,
22,condition1,blue_calculator,"
calculatrice",3861,52,calculator,[],22,Yes,,Nouvelle aquitaine,-1,1,oui,français,français,Male,preAge8,"anglais, espagnol",non,FR,Firefox,Windows,1080,1920,9.223033333333332,
22,condition1,green_bench,"
banc",1889,53,bench,[],22,Yes,,Nouvelle aquitaine,-1,1,oui,français,français,Male,preAge8,"anglais, espagnol",non,FR,Firefox,Windows,1080,1920,9.223033333333332,
22,condition1,orange_remote,"
télécommande",4623,54,remote,[],22,Yes,,Nouvelle aquitaine,-1,1,oui,français,français,Male,preAge8,"anglais, espagnol",non,FR,Firefox,Windows,1080,1920,9.223033333333332,
22,condition1,black_slipper,"
pantoufle",3373,55,slipper,[],22,Yes,,Nouvelle aquitaine,-1,1,oui,français,français,Male,preAge8,"anglais, espagnol",non,FR,Firefox,Windows,1080,1920,9.223033333333332,
22,condition1,white_comb,"
peigne",3196,56,comb,[],22,Yes,,Nouvelle aquitaine,-1,1,oui,français,français,Male,preAge8,"anglais, espagnol",non,FR,Firefox,Windows,1080,1920,9.223033333333332,
22,condition1,blue_sword,"
sabre",2908,57,sword,[],22,Yes,,Nouvelle aquitaine,-1,1,oui,français,français,Male,preAge8,"anglais, espagnol",non,FR,Firefox,Windows,1080,1920,9.223033333333332,
22,condition1,orange_truck,"
camion",2446,58,truck,[],22,Yes,,Nouvelle aquitaine,-1,1,oui,français,français,Male,preAge8,"anglais, espagnol",non,FR,Firefox,Windows,1080,1920,9.223033333333332,
22,condition1,yellow_cushion,"
coussin",5780,59,cushion,[],22,Yes,,Nouvelle aquitaine,-1,1,oui,français,français,Male,preAge8,"anglais, espagnol",non,FR,Firefox,Windows,1080,1920,9.223033333333332,
22,condition1,blue_ornament,"
boule",3176,60,ornament,[],22,Yes,,Nouvelle aquitaine,-1,1,oui,français,français,Male,preAge8,"anglais, espagnol",non,FR,Firefox,Windows,1080,1920,9.223033333333332,
22,condition1,green_luggage,"
valise",6196,61,luggage,[],22,Yes,,Nouvelle aquitaine,-1,1,oui,français,français,Male,preAge8,"anglais, espagnol",non,FR,Firefox,Windows,1080,1920,9.223033333333332,
22,condition1,blue_shirt,"
t shirt",3605,62,shirt,[],22,Yes,,Nouvelle aquitaine,-1,1,oui,français,français,Male,preAge8,"anglais, espagnol",non,FR,Firefox,Windows,1080,1920,9.223033333333332,
22,condition1,purple_knife,"
couteau",3706,63,knife,[],22,Yes,,Nouvelle aquitaine,-1,1,oui,français,français,Male,preAge8,"anglais, espagnol",non,FR,Firefox,Windows,1080,1920,9.223033333333332,
22,condition1,yellow_table,"
banc",2584,64,table,[],22,Yes,,Nouvelle aquitaine,-1,1,oui,français,français,Male,preAge8,"anglais, espagnol",non,FR,Firefox,Windows,1080,1920,9.223033333333332,
22,condition1,white_frame,"
fenetre",4214,65,frame,[],22,Yes,,Nouvelle aquitaine,-1,1,oui,français,français,Male,preAge8,"anglais, espagnol",non,FR,Firefox,Windows,1080,1920,9.223033333333332,
22,condition1,blue_dress,"
robe",3746,66,dress,[],22,Yes,,Nouvelle aquitaine,-1,1,oui,français,français,Male,preAge8,"anglais, espagnol",non,FR,Firefox,Windows,1080,1920,9.223033333333332,
22,condition1,green_robot,"
robto",3663,67,robot,[],22,Yes,,Nouvelle aquitaine,-1,1,oui,français,français,Male,preAge8,"anglais, espagnol",non,FR,Firefox,Windows,1080,1920,9.223033333333332,
22,condition1,orange_purse,"
sac",3352,68,purse,[],22,Yes,,Nouvelle aquitaine,-1,1,oui,français,français,Male,preAge8,"anglais, espagnol",non,FR,Firefox,Windows,1080,1920,9.223033333333332,
22,condition1,orange_lock,"
cadenas",2867,69,lock,[],22,Yes,,Nouvelle aquitaine,-1,1,oui,français,français,Male,preAge8,"anglais, espagnol",non,FR,Firefox,Windows,1080,1920,9.223033333333332,
22,condition1,red_balloon,"
ballon",5127,70,balloon,[],22,Yes,,Nouvelle aquitaine,-1,1,oui,français,français,Male,preAge8,"anglais, espagnol",non,FR,Firefox,Windows,1080,1920,9.223033333333332,
22,condition1,green_airplane,"
avion",3259,71,airplane,[],22,Yes,,Nouvelle aquitaine,-1,1,oui,français,français,Male,preAge8,"anglais, espagnol",non,FR,Firefox,Windows,1080,1920,9.223033333333332,
22,condition1,white_crown,"
couronne",3747,72,crown,[],22,Yes,,Nouvelle aquitaine,-1,1,oui,français,français,Male,preAge8,"anglais, espagnol",non,FR,Firefox,Windows,1080,1920,9.223033333333332,
22,condition1,purple_microscope,"
microscope",4249,73,microscope,[],22,Yes,,Nouvelle aquitaine,-1,1,oui,français,français,Male,preAge8,"anglais, espagnol",non,FR,Firefox,Windows,1080,1920,9.223033333333332,
22,condition1,white_door,"
porte",3916,74,door,[],22,Yes,,Nouvelle aquitaine,-1,1,oui,français,français,Male,preAge8,"anglais, espagnol",non,FR,Firefox,Windows,1080,1920,9.223033333333332,
22,condition1,purple_spoon,"
cuiller",3208,75,spoon,[],22,Yes,,Nouvelle aquitaine,-1,1,oui,français,français,Male,preAge8,"anglais, espagnol",non,FR,Firefox,Windows,1080,1920,9.223033333333332,
22,condition1,white_billiardball,"
boule de billard",7907,76,billiardball,[],22,Yes,,Nouvelle aquitaine,-1,1,oui,français,français,Male,preAge8,"anglais, espagnol",non,FR,Firefox,Windows,1080,1920,9.223033333333332,
22,condition1,black_screwdriver,"
tournevis",5052,77,screwdriver,[],22,Yes,,Nouvelle aquitaine,-1,1,oui,français,français,Male,preAge8,"anglais, espagnol",non,FR,Firefox,Windows,1080,1920,9.223033333333332,
22,condition1,green_sock,"
chaussette",5468,78,sock,[],22,Yes,,Nouvelle aquitaine,-1,1,oui,français,français,Male,preAge8,"anglais, espagnol",non,FR,Firefox,Windows,1080,1920,9.223033333333332,
22,condition1,white_notebook,"
règle",4567,79,notebook,[],22,Yes,,Nouvelle aquitaine,-1,1,oui,français,français,Male,preAge8,"anglais, espagnol",non,FR,Firefox,Windows,1080,1920,9.223033333333332,
22,condition1,blue_shoe,"
chaussure",9857,80,shoe,[],22,Yes,,Nouvelle aquitaine,-1,1,oui,français,français,Male,preAge8,"anglais, espagnol",non,FR,Firefox,Windows,1080,1920,9.223033333333332,
22,condition1,purple_binoculars,"
jumelles",6464,81,binoculars,[],22,Yes,,Nouvelle aquitaine,-1,1,oui,français,français,Male,preAge8,"anglais, espagnol",non,FR,Firefox,Windows,1080,1920,9.223033333333332,
22,condition1,blue_phone,"
téléphone",6216,82,phone,[],22,Yes,,Nouvelle aquitaine,-1,1,oui,français,français,Male,preAge8,"anglais, espagnol",non,FR,Firefox,Windows,1080,1920,9.223033333333332,
22,condition1,yellow_bed,"
lit",2117,83,bed,[],22,Yes,,Nouvelle aquitaine,-1,1,oui,français,français,Male,preAge8,"anglais, espagnol",non,FR,Firefox,Windows,1080,1920,9.223033333333332,
22,condition1,purple_bonbon,"
bonbon",3018,84,bonbon,[],22,Yes,,Nouvelle aquitaine,-1,1,oui,français,français,Male,preAge8,"anglais, espagnol",non,FR,Firefox,Windows,1080,1920,9.223033333333332,
22,condition1,green_ribbon,"
noeud",2934,85,ribbon,[],22,Yes,,Nouvelle aquitaine,-1,1,oui,français,français,Male,preAge8,"anglais, espagnol",non,FR,Firefox,Windows,1080,1920,9.223033333333332,
22,condition1,white_magnifyingglass,"
loupe",3142,86,magnifyingglass,[],22,Yes,,Nouvelle aquitaine,-1,1,oui,français,français,Male,preAge8,"anglais, espagnol",non,FR,Firefox,Windows,1080,1920,9.223033333333332,
22,condition1,white_ruler,"
règle",3710,87,ruler,[],22,Yes,,Nouvelle aquitaine,-1,1,oui,français,français,Male,preAge8,"anglais, espagnol",non,FR,Firefox,Windows,1080,1920,9.223033333333332,
22,condition1,orange_tent,"
tente",3144,88,tent,[],22,Yes,,Nouvelle aquitaine,-1,1,oui,français,français,Male,preAge8,"anglais, espagnol",non,FR,Firefox,Windows,1080,1920,9.223033333333332,
22,condition1,yellow_lamp,"
lampe",2111,89,lamp,[],22,Yes,,Nouvelle aquitaine,-1,1,oui,français,français,Male,preAge8,"anglais, espagnol",non,FR,Firefox,Windows,1080,1920,9.223033333333332,
22,condition1,red_rug,"
tapis",2265,90,rug,[],22,Yes,,Nouvelle aquitaine,-1,1,oui,français,français,Male,preAge8,"anglais, espagnol",non,FR,Firefox,Windows,1080,1920,9.223033333333332,
22,condition1,white_clock,"
réveil",5360,91,clock,[],22,Yes,,Nouvelle aquitaine,-1,1,oui,français,français,Male,preAge8,"anglais, espagnol",non,FR,Firefox,Windows,1080,1920,9.223033333333332,
22,condition1,white_bucket,"
seau",2490,92,bucket,[],22,Yes,,Nouvelle aquitaine,-1,1,oui,français,français,Male,preAge8,"anglais, espagnol",non,FR,Firefox,Windows,1080,1920,9.223033333333332,
22,condition1,blue_book,"
livre",2521,93,book,[],22,Yes,,Nouvelle aquitaine,-1,1,oui,français,français,Male,preAge8,"anglais, espagnol",non,FR,Firefox,Windows,1080,1920,9.223033333333332,
22,condition1,yellow_key,"
clef",2370,94,key,[],22,Yes,,Nouvelle aquitaine,-1,1,oui,français,français,Male,preAge8,"anglais, espagnol",non,FR,Firefox,Windows,1080,1920,9.223033333333332,
22,condition1,red_butterfly,"
papillon",5079,95,butterfly,[],22,Yes,,Nouvelle aquitaine,-1,1,oui,français,français,Male,preAge8,"anglais, espagnol",non,FR,Firefox,Windows,1080,1920,9.223033333333332,
22,condition1,green_tie,"
cravate",3209,96,tie,[],22,Yes,,Nouvelle aquitaine,-1,1,oui,français,français,Male,preAge8,"anglais, espagnol",non,FR,Firefox,Windows,1080,1920,9.223033333333332,
22,condition1,red_napkin,"
serviette",5976,97,napkin,[],22,Yes,,Nouvelle aquitaine,-1,1,oui,français,français,Male,preAge8,"anglais, espagnol",non,FR,Firefox,Windows,1080,1920,9.223033333333332,
22,condition1,purple_drum,"
tambour",4264,98,drum,[],22,Yes,,Nouvelle aquitaine,-1,1,oui,français,français,Male,preAge8,"anglais, espagnol",non,FR,Firefox,Windows,1080,1920,9.223033333333332,
22,condition1,orange_helicopter,"
hélicopter",5526,99,helicopter,[],22,Yes,,Nouvelle aquitaine,-1,1,oui,français,français,Male,preAge8,"anglais, espagnol",non,FR,Firefox,Windows,1080,1920,9.223033333333332,
22,condition1,white_bracelet,"
collier",2845,100,bracelet,[],22,Yes,,Nouvelle aquitaine,-1,1,oui,français,français,Male,preAge8,"anglais, espagnol",non,FR,Firefox,Windows,1080,1920,9.223033333333332,
22,condition1,orange_basket,"
panier",3118,101,basket,[],22,Yes,,Nouvelle aquitaine,-1,1,oui,français,français,Male,preAge8,"anglais, espagnol",non,FR,Firefox,Windows,1080,1920,9.223033333333332,
22,condition1,yellow_scarf,"
écharpe",8511,102,scarf,[],22,Yes,,Nouvelle aquitaine,-1,1,oui,français,français,Male,preAge8,"anglais, espagnol",non,FR,Firefox,Windows,1080,1920,9.223033333333332,
22,condition1,red_fence,"
haie",5150,103,fence,[],22,Yes,,Nouvelle aquitaine,-1,1,oui,français,français,Male,preAge8,"anglais, espagnol",non,FR,Firefox,Windows,1080,1920,9.223033333333332,
22,condition1,yellow_mouse,"
souris",2696,104,mouse,[],22,Yes,,Nouvelle aquitaine,-1,1,oui,français,français,Male,preAge8,"anglais, espagnol",non,FR,Firefox,Windows,1080,1920,9.223033333333332,
22,condition1,purple_sponge,"brosse
",11564,105,sponge,[],22,Yes,,Nouvelle aquitaine,-1,1,oui,français,français,Male,preAge8,"anglais, espagnol",non,FR,Firefox,Windows,1080,1920,9.223033333333332,
22,condition1,black_rope,"
fouet",5106,106,rope,[],22,Yes,,Nouvelle aquitaine,-1,1,oui,français,français,Male,preAge8,"anglais, espagnol",non,FR,Firefox,Windows,1080,1920,9.223033333333332,
147,condition1,blue_dress,ROBE,3550,2,dress,[],31,Yes,je ne me rappelle plus du nom de l'objet pour effacer les tableaux!,,4,2,oui,FRANCAIS,FRANCAIS,Male,preAndPostAge8,ANGLAIS ESPAGNOL,,FR,Chrome,Windows,864,1536,6.9607833333333335,
147,condition1,yellow_mask,"
MASQUE",3788,3,mask,[],31,Yes,je ne me rappelle plus du nom de l'objet pour effacer les tableaux!,,4,2,oui,FRANCAIS,FRANCAIS,Male,preAndPostAge8,ANGLAIS ESPAGNOL,,FR,Chrome,Windows,864,1536,6.9607833333333335,
147,condition1,orange_sock,"
CHAUSSETTE",4240,4,sock,[],31,Yes,je ne me rappelle plus du nom de l'objet pour effacer les tableaux!,,4,2,oui,FRANCAIS,FRANCAIS,Male,preAndPostAge8,ANGLAIS ESPAGNOL,,FR,Chrome,Windows,864,1536,6.9607833333333335,
147,condition1,white_billiardball,"
boule billard",4600,5,billiardball,[],31,Yes,je ne me rappelle plus du nom de l'objet pour effacer les tableaux!,,4,2,oui,FRANCAIS,FRANCAIS,Male,preAndPostAge8,ANGLAIS ESPAGNOL,,FR,Chrome,Windows,864,1536,6.9607833333333335,
147,condition1,yellow_notebook,"
cahier",3243,6,notebook,[],31,Yes,je ne me rappelle plus du nom de l'objet pour effacer les tableaux!,,4,2,oui,FRANCAIS,FRANCAIS,Male,preAndPostAge8,ANGLAIS ESPAGNOL,,FR,Chrome,Windows,864,1536,6.9607833333333335,
147,condition1,purple_rope,"
ficelle",2695,7,rope,[],31,Yes,je ne me rappelle plus du nom de l'objet pour effacer les tableaux!,,4,2,oui,FRANCAIS,FRANCAIS,Male,preAndPostAge8,ANGLAIS ESPAGNOL,,FR,Chrome,Windows,864,1536,6.9607833333333335,
147,condition1,green_remote,"
télécommande",3817,8,remote,[],31,Yes,je ne me rappelle plus du nom de l'objet pour effacer les tableaux!,,4,2,oui,FRANCAIS,FRANCAIS,Male,preAndPostAge8,ANGLAIS ESPAGNOL,,FR,Chrome,Windows,864,1536,6.9607833333333335,
147,condition1,black_duck,"
canard",2815,9,duck,[],31,Yes,je ne me rappelle plus du nom de l'objet pour effacer les tableaux!,,4,2,oui,FRANCAIS,FRANCAIS,Male,preAndPostAge8,ANGLAIS ESPAGNOL,,FR,Chrome,Windows,864,1536,6.9607833333333335,
147,condition1,yellow_scarf,"
écharpe",3126,10,scarf,[],31,Yes,je ne me rappelle plus du nom de l'objet pour effacer les tableaux!,,4,2,oui,FRANCAIS,FRANCAIS,Male,preAndPostAge8,ANGLAIS ESPAGNOL,,FR,Chrome,Windows,864,1536,6.9607833333333335,
147,condition1,black_piano,"
piano",2493,11,piano,[],31,Yes,je ne me rappelle plus du nom de l'objet pour effacer les tableaux!,,4,2,oui,FRANCAIS,FRANCAIS,Male,preAndPostAge8,ANGLAIS ESPAGNOL,,FR,Chrome,Windows,864,1536,6.9607833333333335,
147,condition1,green_drum,"
tambour",2705,12,drum,[],31,Yes,je ne me rappelle plus du nom de l'objet pour effacer les tableaux!,,4,2,oui,FRANCAIS,FRANCAIS,Male,preAndPostAge8,ANGLAIS ESPAGNOL,,FR,Chrome,Windows,864,1536,6.9607833333333335,
147,condition1,red_book,"
livre",2432,13,book,[],31,Yes,je ne me rappelle plus du nom de l'objet pour effacer les tableaux!,,4,2,oui,FRANCAIS,FRANCAIS,Male,preAndPostAge8,ANGLAIS ESPAGNOL,,FR,Chrome,Windows,864,1536,6.9607833333333335,
147,condition1,purple_airplane,"
avion",1819,14,airplane,[],31,Yes,je ne me rappelle plus du nom de l'objet pour effacer les tableaux!,,4,2,oui,FRANCAIS,FRANCAIS,Male,preAndPostAge8,ANGLAIS ESPAGNOL,,FR,Chrome,Windows,864,1536,6.9607833333333335,
147,condition1,green_fish,"
poisson",1967,15,fish,[],31,Yes,je ne me rappelle plus du nom de l'objet pour effacer les tableaux!,,4,2,oui,FRANCAIS,FRANCAIS,Male,preAndPostAge8,ANGLAIS ESPAGNOL,,FR,Chrome,Windows,864,1536,6.9607833333333335,
147,condition1,orange_spoon,"
cuillère",2581,16,spoon,[],31,Yes,je ne me rappelle plus du nom de l'objet pour effacer les tableaux!,,4,2,oui,FRANCAIS,FRANCAIS,Male,preAndPostAge8,ANGLAIS ESPAGNOL,,FR,Chrome,Windows,864,1536,6.9607833333333335,
147,condition1,yellow_balloon,"
ballon",2107,17,balloon,[],31,Yes,je ne me rappelle plus du nom de l'objet pour effacer les tableaux!,,4,2,oui,FRANCAIS,FRANCAIS,Male,preAndPostAge8,ANGLAIS ESPAGNOL,,FR,Chrome,Windows,864,1536,6.9607833333333335,
147,condition1,white_crown,"
couronne",4091,18,crown,[],31,Yes,je ne me rappelle plus du nom de l'objet pour effacer les tableaux!,,4,2,oui,FRANCAIS,FRANCAIS,Male,preAndPostAge8,ANGLAIS ESPAGNOL,,FR,Chrome,Windows,864,1536,6.9607833333333335,
147,condition1,green_tent,"
tente",1720,19,tent,[],31,Yes,je ne me rappelle plus du nom de l'objet pour effacer les tableaux!,,4,2,oui,FRANCAIS,FRANCAIS,Male,preAndPostAge8,ANGLAIS ESPAGNOL,,FR,Chrome,Windows,864,1536,6.9607833333333335,
147,condition1,blue_napkin,"
serviette",4633,20,napkin,[],31,Yes,je ne me rappelle plus du nom de l'objet pour effacer les tableaux!,,4,2,oui,FRANCAIS,FRANCAIS,Male,preAndPostAge8,ANGLAIS ESPAGNOL,,FR,Chrome,Windows,864,1536,6.9607833333333335,
147,condition1,yellow_dustpan,"
pelle",2257,21,dustpan,[],31,Yes,je ne me rappelle plus du nom de l'objet pour effacer les tableaux!,,4,2,oui,FRANCAIS,FRANCAIS,Male,preAndPostAge8,ANGLAIS ESPAGNOL,,FR,Chrome,Windows,864,1536,6.9607833333333335,
147,condition1,blue_bed,"
lit",2197,22,bed,[],31,Yes,je ne me rappelle plus du nom de l'objet pour effacer les tableaux!,,4,2,oui,FRANCAIS,FRANCAIS,Male,preAndPostAge8,ANGLAIS ESPAGNOL,,FR,Chrome,Windows,864,1536,6.9607833333333335,
147,condition1,blue_belt,"
ceinture",2333,23,belt,[],31,Yes,je ne me rappelle plus du nom de l'objet pour effacer les tableaux!,,4,2,oui,FRANCAIS,FRANCAIS,Male,preAndPostAge8,ANGLAIS ESPAGNOL,,FR,Chrome,Windows,864,1536,6.9607833333333335,
147,condition1,purple_die,"
dé",1370,24,die,[],31,Yes,je ne me rappelle plus du nom de l'objet pour effacer les tableaux!,,4,2,oui,FRANCAIS,FRANCAIS,Male,preAndPostAge8,ANGLAIS ESPAGNOL,,FR,Chrome,Windows,864,1536,6.9607833333333335,
147,condition1,green_binoculars,"
jumelles",2989,25,binoculars,[],31,Yes,je ne me rappelle plus du nom de l'objet pour effacer les tableaux!,,4,2,oui,FRANCAIS,FRANCAIS,Male,preAndPostAge8,ANGLAIS ESPAGNOL,,FR,Chrome,Windows,864,1536,6.9607833333333335,
147,condition1,purple_ladle,"
louche",2441,26,ladle,[],31,Yes,je ne me rappelle plus du nom de l'objet pour effacer les tableaux!,,4,2,oui,FRANCAIS,FRANCAIS,Male,preAndPostAge8,ANGLAIS ESPAGNOL,,FR,Chrome,Windows,864,1536,6.9607833333333335,
147,condition1,purple_calendar,"
calendrier",3507,27,calendar,[],31,Yes,je ne me rappelle plus du nom de l'objet pour effacer les tableaux!,,4,2,oui,FRANCAIS,FRANCAIS,Male,preAndPostAge8,ANGLAIS ESPAGNOL,,FR,Chrome,Windows,864,1536,6.9607833333333335,
147,condition1,green_screwdriver,"
tournevis",2576,28,screwdriver,[],31,Yes,je ne me rappelle plus du nom de l'objet pour effacer les tableaux!,,4,2,oui,FRANCAIS,FRANCAIS,Male,preAndPostAge8,ANGLAIS ESPAGNOL,,FR,Chrome,Windows,864,1536,6.9607833333333335,
147,condition1,black_box,"
carton",2182,29,box,[],31,Yes,je ne me rappelle plus du nom de l'objet pour effacer les tableaux!,,4,2,oui,FRANCAIS,FRANCAIS,Male,preAndPostAge8,ANGLAIS ESPAGNOL,,FR,Chrome,Windows,864,1536,6.9607833333333335,
147,condition1,purple_bonbon,"
bonbon",2639,30,bonbon,[],31,Yes,je ne me rappelle plus du nom de l'objet pour effacer les tableaux!,,4,2,oui,FRANCAIS,FRANCAIS,Male,preAndPostAge8,ANGLAIS ESPAGNOL,,FR,Chrome,Windows,864,1536,6.9607833333333335,
147,condition1,blue_fence,"
haie",1933,31,fence,[],31,Yes,je ne me rappelle plus du nom de l'objet pour effacer les tableaux!,,4,2,oui,FRANCAIS,FRANCAIS,Male,preAndPostAge8,ANGLAIS ESPAGNOL,,FR,Chrome,Windows,864,1536,6.9607833333333335,
147,condition1,black_hammer,"
marteau",2302,32,hammer,[],31,Yes,je ne me rappelle plus du nom de l'objet pour effacer les tableaux!,,4,2,oui,FRANCAIS,FRANCAIS,Male,preAndPostAge8,ANGLAIS ESPAGNOL,,FR,Chrome,Windows,864,1536,6.9607833333333335,
147,condition1,orange_boot,"
chaussure",2263,33,boot,[],31,Yes,je ne me rappelle plus du nom de l'objet pour effacer les tableaux!,,4,2,oui,FRANCAIS,FRANCAIS,Male,preAndPostAge8,ANGLAIS ESPAGNOL,,FR,Chrome,Windows,864,1536,6.9607833333333335,
147,condition1,orange_bandaid,"
pansement",3906,34,bandaid,[],31,Yes,je ne me rappelle plus du nom de l'objet pour effacer les tableaux!,,4,2,oui,FRANCAIS,FRANCAIS,Male,preAndPostAge8,ANGLAIS ESPAGNOL,,FR,Chrome,Windows,864,1536,6.9607833333333335,
147,condition1,yellow_switch,"
interrupteur",4967,35,switch,[],31,Yes,je ne me rappelle plus du nom de l'objet pour effacer les tableaux!,,4,2,oui,FRANCAIS,FRANCAIS,Male,preAndPostAge8,ANGLAIS ESPAGNOL,,FR,Chrome,Windows,864,1536,6.9607833333333335,
147,condition1,yellow_calculator,"
calculette",3470,36,calculator,[],31,Yes,je ne me rappelle plus du nom de l'objet pour effacer les tableaux!,,4,2,oui,FRANCAIS,FRANCAIS,Male,preAndPostAge8,ANGLAIS ESPAGNOL,,FR,Chrome,Windows,864,1536,6.9607833333333335,
147,condition1,orange_lipstick,"
rouge à lèvre",3865,37,lipstick,[],31,Yes,je ne me rappelle plus du nom de l'objet pour effacer les tableaux!,,4,2,oui,FRANCAIS,FRANCAIS,Male,preAndPostAge8,ANGLAIS ESPAGNOL,,FR,Chrome,Windows,864,1536,6.9607833333333335,
147,condition1,white_key,"
clé",1296,38,key,[],31,Yes,je ne me rappelle plus du nom de l'objet pour effacer les tableaux!,,4,2,oui,FRANCAIS,FRANCAIS,Male,preAndPostAge8,ANGLAIS ESPAGNOL,,FR,Chrome,Windows,864,1536,6.9607833333333335,
147,condition1,yellow_comb,"
peigne",2534,39,comb,[],31,Yes,je ne me rappelle plus du nom de l'objet pour effacer les tableaux!,,4,2,oui,FRANCAIS,FRANCAIS,Male,preAndPostAge8,ANGLAIS ESPAGNOL,,FR,Chrome,Windows,864,1536,6.9607833333333335,
147,condition1,yellow_frame,"
cadre",2282,40,frame,[],31,Yes,je ne me rappelle plus du nom de l'objet pour effacer les tableaux!,,4,2,oui,FRANCAIS,FRANCAIS,Male,preAndPostAge8,ANGLAIS ESPAGNOL,,FR,Chrome,Windows,864,1536,6.9607833333333335,
147,condition1,white_binder,"
pochette",4279,41,binder,[],31,Yes,je ne me rappelle plus du nom de l'objet pour effacer les tableaux!,,4,2,oui,FRANCAIS,FRANCAIS,Male,preAndPostAge8,ANGLAIS ESPAGNOL,,FR,Chrome,Windows,864,1536,6.9607833333333335,
147,condition1,orange_glove,"
gant",1714,42,glove,[],31,Yes,je ne me rappelle plus du nom de l'objet pour effacer les tableaux!,,4,2,oui,FRANCAIS,FRANCAIS,Male,preAndPostAge8,ANGLAIS ESPAGNOL,,FR,Chrome,Windows,864,1536,6.9607833333333335,
147,condition1,red_ring,bague,6708,43,ring,[],31,Yes,je ne me rappelle plus du nom de l'objet pour effacer les tableaux!,,4,2,oui,FRANCAIS,FRANCAIS,Male,preAndPostAge8,ANGLAIS ESPAGNOL,,FR,Chrome,Windows,864,1536,6.9607833333333335,
147,condition1,orange_bench,"
banc",1743,44,bench,[],31,Yes,je ne me rappelle plus du nom de l'objet pour effacer les tableaux!,,4,2,oui,FRANCAIS,FRANCAIS,Male,preAndPostAge8,ANGLAIS ESPAGNOL,,FR,Chrome,Windows,864,1536,6.9607833333333335,
147,condition1,white_fryingpan,"
poèle",2933,45,fryingpan,[],31,Yes,je ne me rappelle plus du nom de l'objet pour effacer les tableaux!,,4,2,oui,FRANCAIS,FRANCAIS,Male,preAndPostAge8,ANGLAIS ESPAGNOL,,FR,Chrome,Windows,864,1536,6.9607833333333335,
147,condition1,orange_cake,"
gâteau",3442,46,cake,[],31,Yes,je ne me rappelle plus du nom de l'objet pour effacer les tableaux!,,4,2,oui,FRANCAIS,FRANCAIS,Male,preAndPostAge8,ANGLAIS ESPAGNOL,,FR,Chrome,Windows,864,1536,6.9607833333333335,
147,condition1,purple_tie,"
cravate",3164,47,tie,[],31,Yes,je ne me rappelle plus du nom de l'objet pour effacer les tableaux!,,4,2,oui,FRANCAIS,FRANCAIS,Male,preAndPostAge8,ANGLAIS ESPAGNOL,,FR,Chrome,Windows,864,1536,6.9607833333333335,
147,condition1,purple_plate,"
assiette",2770,48,plate,[],31,Yes,je ne me rappelle plus du nom de l'objet pour effacer les tableaux!,,4,2,oui,FRANCAIS,FRANCAIS,Male,preAndPostAge8,ANGLAIS ESPAGNOL,,FR,Chrome,Windows,864,1536,6.9607833333333335,
147,condition1,white_table,"
table",1828,49,table,[],31,Yes,je ne me rappelle plus du nom de l'objet pour effacer les tableaux!,,4,2,oui,FRANCAIS,FRANCAIS,Male,preAndPostAge8,ANGLAIS ESPAGNOL,,FR,Chrome,Windows,864,1536,6.9607833333333335,
147,condition1,green_slipper,"
chausson",2248,50,slipper,[],31,Yes,je ne me rappelle plus du nom de l'objet pour effacer les tableaux!,,4,2,oui,FRANCAIS,FRANCAIS,Male,preAndPostAge8,ANGLAIS ESPAGNOL,,FR,Chrome,Windows,864,1536,6.9607833333333335,
147,condition1,white_candle,"
bougie",2526,51,candle,[],31,Yes,je ne me rappelle plus du nom de l'objet pour effacer les tableaux!,,4,2,oui,FRANCAIS,FRANCAIS,Male,preAndPostAge8,ANGLAIS ESPAGNOL,,FR,Chrome,Windows,864,1536,6.9607833333333335,
147,condition1,yellow_mouse,"
souris",1869,52,mouse,[],31,Yes,je ne me rappelle plus du nom de l'objet pour effacer les tableaux!,,4,2,oui,FRANCAIS,FRANCAIS,Male,preAndPostAge8,ANGLAIS ESPAGNOL,,FR,Chrome,Windows,864,1536,6.9607833333333335,
147,condition1,purple_umbrella,"
parapluie",6337,53,umbrella,[],31,Yes,je ne me rappelle plus du nom de l'objet pour effacer les tableaux!,,4,2,oui,FRANCAIS,FRANCAIS,Male,preAndPostAge8,ANGLAIS ESPAGNOL,,FR,Chrome,Windows,864,1536,6.9607833333333335,
147,condition1,green_razor,"
rasoir",2024,54,razor,[],31,Yes,je ne me rappelle plus du nom de l'objet pour effacer les tableaux!,,4,2,oui,FRANCAIS,FRANCAIS,Male,preAndPostAge8,ANGLAIS ESPAGNOL,,FR,Chrome,Windows,864,1536,6.9607833333333335,
147,condition1,blue_wallet,"
porte-feuille",8472,55,wallet,[],31,Yes,je ne me rappelle plus du nom de l'objet pour effacer les tableaux!,,4,2,oui,FRANCAIS,FRANCAIS,Male,preAndPostAge8,ANGLAIS ESPAGNOL,,FR,Chrome,Windows,864,1536,6.9607833333333335,
147,condition1,white_armchair,"
fauteuil",8050,56,armchair,[],31,Yes,je ne me rappelle plus du nom de l'objet pour effacer les tableaux!,,4,2,oui,FRANCAIS,FRANCAIS,Male,preAndPostAge8,ANGLAIS ESPAGNOL,,FR,Chrome,Windows,864,1536,6.9607833333333335,
147,condition1,white_ruler,"
règle",3178,57,ruler,[],31,Yes,je ne me rappelle plus du nom de l'objet pour effacer les tableaux!,,4,2,oui,FRANCAIS,FRANCAIS,Male,preAndPostAge8,ANGLAIS ESPAGNOL,,FR,Chrome,Windows,864,1536,6.9607833333333335,
147,condition1,purple_shell,"
coquillage",5756,58,shell,[],31,Yes,je ne me rappelle plus du nom de l'objet pour effacer les tableaux!,,4,2,oui,FRANCAIS,FRANCAIS,Male,preAndPostAge8,ANGLAIS ESPAGNOL,,FR,Chrome,Windows,864,1536,6.9607833333333335,
147,condition1,white_flower,"
fleur",2077,59,flower,[],31,Yes,je ne me rappelle plus du nom de l'objet pour effacer les tableaux!,,4,2,oui,FRANCAIS,FRANCAIS,Male,preAndPostAge8,ANGLAIS ESPAGNOL,,FR,Chrome,Windows,864,1536,6.9607833333333335,
147,condition1,red_sword,"
épée",2138,60,sword,[],31,Yes,je ne me rappelle plus du nom de l'objet pour effacer les tableaux!,,4,2,oui,FRANCAIS,FRANCAIS,Male,preAndPostAge8,ANGLAIS ESPAGNOL,,FR,Chrome,Windows,864,1536,6.9607833333333335,
147,condition1,blue_ornament,"
boule noël",9461,61,ornament,[],31,Yes,je ne me rappelle plus du nom de l'objet pour effacer les tableaux!,,4,2,oui,FRANCAIS,FRANCAIS,Male,preAndPostAge8,ANGLAIS ESPAGNOL,,FR,Chrome,Windows,864,1536,6.9607833333333335,
147,condition1,purple_robot,"
robot",2381,62,robot,[],31,Yes,je ne me rappelle plus du nom de l'objet pour effacer les tableaux!,,4,2,oui,FRANCAIS,FRANCAIS,Male,preAndPostAge8,ANGLAIS ESPAGNOL,,FR,Chrome,Windows,864,1536,6.9607833333333335,
147,condition1,green_ribbon,"
noeud",4956,63,ribbon,[],31,Yes,je ne me rappelle plus du nom de l'objet pour effacer les tableaux!,,4,2,oui,FRANCAIS,FRANCAIS,Male,preAndPostAge8,ANGLAIS ESPAGNOL,,FR,Chrome,Windows,864,1536,6.9607833333333335,
147,condition1,black_purse,"
sac à main",5106,64,purse,[],31,Yes,je ne me rappelle plus du nom de l'objet pour effacer les tableaux!,,4,2,oui,FRANCAIS,FRANCAIS,Male,preAndPostAge8,ANGLAIS ESPAGNOL,,FR,Chrome,Windows,864,1536,6.9607833333333335,
147,condition1,white_bucket,"
seau",1948,65,bucket,[],31,Yes,je ne me rappelle plus du nom de l'objet pour effacer les tableaux!,,4,2,oui,FRANCAIS,FRANCAIS,Male,preAndPostAge8,ANGLAIS ESPAGNOL,,FR,Chrome,Windows,864,1536,6.9607833333333335,
147,condition1,white_chair,"
chaise",1859,66,chair,[],31,Yes,je ne me rappelle plus du nom de l'objet pour effacer les tableaux!,,4,2,oui,FRANCAIS,FRANCAIS,Male,preAndPostAge8,ANGLAIS ESPAGNOL,,FR,Chrome,Windows,864,1536,6.9607833333333335,
147,condition1,white_clock,"
réveil",2931,67,clock,[],31,Yes,je ne me rappelle plus du nom de l'objet pour effacer les tableaux!,,4,2,oui,FRANCAIS,FRANCAIS,Male,preAndPostAge8,ANGLAIS ESPAGNOL,,FR,Chrome,Windows,864,1536,6.9607833333333335,
147,condition1,black_tv,"
télé",2404,68,tv,[],31,Yes,je ne me rappelle plus du nom de l'objet pour effacer les tableaux!,,4,2,oui,FRANCAIS,FRANCAIS,Male,preAndPostAge8,ANGLAIS ESPAGNOL,,FR,Chrome,Windows,864,1536,6.9607833333333335,
147,condition1,red_lamp,"
lampe",1983,69,lamp,[],31,Yes,je ne me rappelle plus du nom de l'objet pour effacer les tableaux!,,4,2,oui,FRANCAIS,FRANCAIS,Male,preAndPostAge8,ANGLAIS ESPAGNOL,,FR,Chrome,Windows,864,1536,6.9607833333333335,
147,condition1,white_cushion,"
coussin",3103,70,cushion,[],31,Yes,je ne me rappelle plus du nom de l'objet pour effacer les tableaux!,,4,2,oui,FRANCAIS,FRANCAIS,Male,preAndPostAge8,ANGLAIS ESPAGNOL,,FR,Chrome,Windows,864,1536,6.9607833333333335,
147,condition1,purple_shovel,"
pelle",1593,71,shovel,[],31,Yes,je ne me rappelle plus du nom de l'objet pour effacer les tableaux!,,4,2,oui,FRANCAIS,FRANCAIS,Male,preAndPostAge8,ANGLAIS ESPAGNOL,,FR,Chrome,Windows,864,1536,6.9607833333333335,
147,condition1,black_helicopter,"
hélicoptère",7020,72,helicopter,[],31,Yes,je ne me rappelle plus du nom de l'objet pour effacer les tableaux!,,4,2,oui,FRANCAIS,FRANCAIS,Male,preAndPostAge8,ANGLAIS ESPAGNOL,,FR,Chrome,Windows,864,1536,6.9607833333333335,
147,condition1,red_bike,"
vélo",2337,73,bike,[],31,Yes,je ne me rappelle plus du nom de l'objet pour effacer les tableaux!,,4,2,oui,FRANCAIS,FRANCAIS,Male,preAndPostAge8,ANGLAIS ESPAGNOL,,FR,Chrome,Windows,864,1536,6.9607833333333335,
147,condition1,black_truck,"
camion",2193,74,truck,[],31,Yes,je ne me rappelle plus du nom de l'objet pour effacer les tableaux!,,4,2,oui,FRANCAIS,FRANCAIS,Male,preAndPostAge8,ANGLAIS ESPAGNOL,,FR,Chrome,Windows,864,1536,6.9607833333333335,
147,condition1,green_fork,"
fourchette",3234,75,fork,[],31,Yes,je ne me rappelle plus du nom de l'objet pour effacer les tableaux!,,4,2,oui,FRANCAIS,FRANCAIS,Male,preAndPostAge8,ANGLAIS ESPAGNOL,,FR,Chrome,Windows,864,1536,6.9607833333333335,
147,condition1,blue_butterfly,"
papillon",4333,76,butterfly,[],31,Yes,je ne me rappelle plus du nom de l'objet pour effacer les tableaux!,,4,2,oui,FRANCAIS,FRANCAIS,Male,preAndPostAge8,ANGLAIS ESPAGNOL,,FR,Chrome,Windows,864,1536,6.9607833333333335,
147,condition1,blue_magnifyingglass,"
loupe",1923,77,magnifyingglass,[],31,Yes,je ne me rappelle plus du nom de l'objet pour effacer les tableaux!,,4,2,oui,FRANCAIS,FRANCAIS,Male,preAndPostAge8,ANGLAIS ESPAGNOL,,FR,Chrome,Windows,864,1536,6.9607833333333335,
147,condition1,yellow_rug,"
tapis",2222,78,rug,[],31,Yes,je ne me rappelle plus du nom de l'objet pour effacer les tableaux!,,4,2,oui,FRANCAIS,FRANCAIS,Male,preAndPostAge8,ANGLAIS ESPAGNOL,,FR,Chrome,Windows,864,1536,6.9607833333333335,
147,condition1,purple_necklace,"
collier",3254,79,necklace,[],31,Yes,je ne me rappelle plus du nom de l'objet pour effacer les tableaux!,,4,2,oui,FRANCAIS,FRANCAIS,Male,preAndPostAge8,ANGLAIS ESPAGNOL,,FR,Chrome,Windows,864,1536,6.9607833333333335,
147,condition1,purple_dresser,"
meuble",2984,80,dresser,[],31,Yes,je ne me rappelle plus du nom de l'objet pour effacer les tableaux!,,4,2,oui,FRANCAIS,FRANCAIS,Male,preAndPostAge8,ANGLAIS ESPAGNOL,,FR,Chrome,Windows,864,1536,6.9607833333333335,
147,condition1,blue_stapler,"
agrafeuse",5231,81,stapler,[],31,Yes,je ne me rappelle plus du nom de l'objet pour effacer les tableaux!,,4,2,oui,FRANCAIS,FRANCAIS,Male,preAndPostAge8,ANGLAIS ESPAGNOL,,FR,Chrome,Windows,864,1536,6.9607833333333335,
147,condition1,green_luggage,"
valise",2257,82,luggage,[],31,Yes,je ne me rappelle plus du nom de l'objet pour effacer les tableaux!,,4,2,oui,FRANCAIS,FRANCAIS,Male,preAndPostAge8,ANGLAIS ESPAGNOL,,FR,Chrome,Windows,864,1536,6.9607833333333335,
147,condition1,red_shoe,"
chaussure",2657,83,shoe,[],31,Yes,je ne me rappelle plus du nom de l'objet pour effacer les tableaux!,,4,2,oui,FRANCAIS,FRANCAIS,Male,preAndPostAge8,ANGLAIS ESPAGNOL,,FR,Chrome,Windows,864,1536,6.9607833333333335,
147,condition1,yellow_mug,"
tasse",2097,84,mug,[],31,Yes,je ne me rappelle plus du nom de l'objet pour effacer les tableaux!,,4,2,oui,FRANCAIS,FRANCAIS,Male,preAndPostAge8,ANGLAIS ESPAGNOL,,FR,Chrome,Windows,864,1536,6.9607833333333335,
147,condition1,white_present,"
cadeau",2386,85,present,[],31,Yes,je ne me rappelle plus du nom de l'objet pour effacer les tableaux!,,4,2,oui,FRANCAIS,FRANCAIS,Male,preAndPostAge8,ANGLAIS ESPAGNOL,,FR,Chrome,Windows,864,1536,6.9607833333333335,
147,condition1,green_basket,"
panier",1993,86,basket,[],31,Yes,je ne me rappelle plus du nom de l'objet pour effacer les tableaux!,,4,2,oui,FRANCAIS,FRANCAIS,Male,preAndPostAge8,ANGLAIS ESPAGNOL,,FR,Chrome,Windows,864,1536,6.9607833333333335,
147,condition1,orange_whistle,"
sifflet",2147,87,whistle,[],31,Yes,je ne me rappelle plus du nom de l'objet pour effacer les tableaux!,,4,2,oui,FRANCAIS,FRANCAIS,Male,preAndPostAge8,ANGLAIS ESPAGNOL,,FR,Chrome,Windows,864,1536,6.9607833333333335,
147,condition1,white_iron,fer à repasser,10529,88,iron,[],31,Yes,je ne me rappelle plus du nom de l'objet pour effacer les tableaux!,,4,2,oui,FRANCAIS,FRANCAIS,Male,preAndPostAge8,ANGLAIS ESPAGNOL,,FR,Chrome,Windows,864,1536,6.9607833333333335,
147,condition1,white_phone,"
téléphone",3672,89,phone,[],31,Yes,je ne me rappelle plus du nom de l'objet pour effacer les tableaux!,,4,2,oui,FRANCAIS,FRANCAIS,Male,preAndPostAge8,ANGLAIS ESPAGNOL,,FR,Chrome,Windows,864,1536,6.9607833333333335,
147,condition1,blue_bracelet,"
collier",4498,90,bracelet,[],31,Yes,je ne me rappelle plus du nom de l'objet pour effacer les tableaux!,,4,2,oui,FRANCAIS,FRANCAIS,Male,preAndPostAge8,ANGLAIS ESPAGNOL,,FR,Chrome,Windows,864,1536,6.9607833333333335,
147,condition1,blue_pencil,"
crayon papier",5620,91,pencil,[],31,Yes,je ne me rappelle plus du nom de l'objet pour effacer les tableaux!,,4,2,oui,FRANCAIS,FRANCAIS,Male,preAndPostAge8,ANGLAIS ESPAGNOL,,FR,Chrome,Windows,864,1536,6.9607833333333335,
147,condition1,red_yarn,"
laine",2680,92,yarn,[],31,Yes,je ne me rappelle plus du nom de l'objet pour effacer les tableaux!,,4,2,oui,FRANCAIS,FRANCAIS,Male,preAndPostAge8,ANGLAIS ESPAGNOL,,FR,Chrome,Windows,864,1536,6.9607833333333335,
147,condition1,red_door,"
porte",2003,93,door,[],31,Yes,je ne me rappelle plus du nom de l'objet pour effacer les tableaux!,,4,2,oui,FRANCAIS,FRANCAIS,Male,preAndPostAge8,ANGLAIS ESPAGNOL,,FR,Chrome,Windows,864,1536,6.9607833333333335,
147,condition1,black_bowl,"
bol",9576,94,bowl,[],31,Yes,je ne me rappelle plus du nom de l'objet pour effacer les tableaux!,,4,2,oui,FRANCAIS,FRANCAIS,Male,preAndPostAge8,ANGLAIS ESPAGNOL,,FR,Chrome,Windows,864,1536,6.9607833333333335,
147,condition1,orange_microscope,"
microscope",2940,95,microscope,[],31,Yes,je ne me rappelle plus du nom de l'objet pour effacer les tableaux!,,4,2,oui,FRANCAIS,FRANCAIS,Male,preAndPostAge8,ANGLAIS ESPAGNOL,,FR,Chrome,Windows,864,1536,6.9607833333333335,
147,condition1,yellow_cap,"
casquette",3414,96,cap,[],31,Yes,je ne me rappelle plus du nom de l'objet pour effacer les tableaux!,,4,2,oui,FRANCAIS,FRANCAIS,Male,preAndPostAge8,ANGLAIS ESPAGNOL,,FR,Chrome,Windows,864,1536,6.9607833333333335,
147,condition1,black_vase,"
vase",1823,97,vase,[],31,Yes,je ne me rappelle plus du nom de l'objet pour effacer les tableaux!,,4,2,oui,FRANCAIS,FRANCAIS,Male,preAndPostAge8,ANGLAIS ESPAGNOL,,FR,Chrome,Windows,864,1536,6.9607833333333335,
147,condition1,blue_guitar,"
