workerid,proliferate.condition,object,response,rt,slide_number_in_experiment,utterance,catch_trials,subject_information.age,subject_information.asses,subject_information.bcsPrimaryLanguageSchool,subject_information.comments,subject_information.country,subject_information.dialectOne,subject_information.dialectTwo,subject_information.education,subject_information.enjoyment,subject_information.fairprice,subject_information.firstLanguage,subject_information.gender,subject_information.liveInYugo,subject_information.otherLanguage,subject_information.problems,system.Browser,system.OS,system.screenH,system.screenW,time_in_minutes,error
225,condition1,orange_piano,smede,6013,2,piano,[],45,Yes,Hrvatski,"Na tipkovnici nemam palatale osim ako ne pritisnem posebnu tipku, te zbog toga u samo jednom odgovoru koristim palatal",HR,ikavica,štokavski,1,2,Bila je,Hrvatski,Female,preAndPostAge8,Engleski,Nisam,Safari,Mac,900,1440,8.28075,
225,condition1,black_box,"
crne",2022,3,box,[],45,Yes,Hrvatski,"Na tipkovnici nemam palatale osim ako ne pritisnem posebnu tipku, te zbog toga u samo jednom odgovoru koristim palatal",HR,ikavica,štokavski,1,2,Bila je,Hrvatski,Female,preAndPostAge8,Engleski,Nisam,Safari,Mac,900,1440,8.28075,
225,condition1,orange_spoon,"
zlatne",2803,4,spoon,[],45,Yes,Hrvatski,"Na tipkovnici nemam palatale osim ako ne pritisnem posebnu tipku, te zbog toga u samo jednom odgovoru koristim palatal",HR,ikavica,štokavski,1,2,Bila je,Hrvatski,Female,preAndPostAge8,Engleski,Nisam,Safari,Mac,900,1440,8.28075,
225,condition1,purple_sponge,"
ljubicasta",3922,5,sponge,[],45,Yes,Hrvatski,"Na tipkovnici nemam palatale osim ako ne pritisnem posebnu tipku, te zbog toga u samo jednom odgovoru koristim palatal",HR,ikavica,štokavski,1,2,Bila je,Hrvatski,Female,preAndPostAge8,Engleski,Nisam,Safari,Mac,900,1440,8.28075,
225,condition1,orange_purse,"
narancasta",4899,6,purse,[],45,Yes,Hrvatski,"Na tipkovnici nemam palatale osim ako ne pritisnem posebnu tipku, te zbog toga u samo jednom odgovoru koristim palatal",HR,ikavica,štokavski,1,2,Bila je,Hrvatski,Female,preAndPostAge8,Engleski,Nisam,Safari,Mac,900,1440,8.28075,
225,condition1,orange_airplane,"
smeda",3826,7,airplane,[],45,Yes,Hrvatski,"Na tipkovnici nemam palatale osim ako ne pritisnem posebnu tipku, te zbog toga u samo jednom odgovoru koristim palatal",HR,ikavica,štokavski,1,2,Bila je,Hrvatski,Female,preAndPostAge8,Engleski,Nisam,Safari,Mac,900,1440,8.28075,
225,condition1,green_lipstick,"
zelena",2420,8,lipstick,[],45,Yes,Hrvatski,"Na tipkovnici nemam palatale osim ako ne pritisnem posebnu tipku, te zbog toga u samo jednom odgovoru koristim palatal",HR,ikavica,štokavski,1,2,Bila je,Hrvatski,Female,preAndPostAge8,Engleski,Nisam,Safari,Mac,900,1440,8.28075,
225,condition1,purple_bench,"
ljubicasta",5081,9,bench,[],45,Yes,Hrvatski,"Na tipkovnici nemam palatale osim ako ne pritisnem posebnu tipku, te zbog toga u samo jednom odgovoru koristim palatal",HR,ikavica,štokavski,1,2,Bila je,Hrvatski,Female,preAndPostAge8,Engleski,Nisam,Safari,Mac,900,1440,8.28075,
225,condition1,blue_cap,"
plava",2156,10,cap,[],45,Yes,Hrvatski,"Na tipkovnici nemam palatale osim ako ne pritisnem posebnu tipku, te zbog toga u samo jednom odgovoru koristim palatal",HR,ikavica,štokavski,1,2,Bila je,Hrvatski,Female,preAndPostAge8,Engleski,Nisam,Safari,Mac,900,1440,8.28075,
225,condition1,white_candle,"
bijela",2270,11,candle,[],45,Yes,Hrvatski,"Na tipkovnici nemam palatale osim ako ne pritisnem posebnu tipku, te zbog toga u samo jednom odgovoru koristim palatal",HR,ikavica,štokavski,1,2,Bila je,Hrvatski,Female,preAndPostAge8,Engleski,Nisam,Safari,Mac,900,1440,8.28075,
225,condition1,white_bucket,"
bijela",2794,12,bucket,[],45,Yes,Hrvatski,"Na tipkovnici nemam palatale osim ako ne pritisnem posebnu tipku, te zbog toga u samo jednom odgovoru koristim palatal",HR,ikavica,štokavski,1,2,Bila je,Hrvatski,Female,preAndPostAge8,Engleski,Nisam,Safari,Mac,900,1440,8.28075,
225,condition1,purple_duck,"
ljubičasta",6268,13,duck,[],45,Yes,Hrvatski,"Na tipkovnici nemam palatale osim ako ne pritisnem posebnu tipku, te zbog toga u samo jednom odgovoru koristim palatal",HR,ikavica,štokavski,1,2,Bila je,Hrvatski,Female,preAndPostAge8,Engleski,Nisam,Safari,Mac,900,1440,8.28075,
225,condition1,yellow_mug,"
zuta",5559,14,mug,[],45,Yes,Hrvatski,"Na tipkovnici nemam palatale osim ako ne pritisnem posebnu tipku, te zbog toga u samo jednom odgovoru koristim palatal",HR,ikavica,štokavski,1,2,Bila je,Hrvatski,Female,preAndPostAge8,Engleski,Nisam,Safari,Mac,900,1440,8.28075,
225,condition1,green_lock,"
zelena",2392,15,lock,[],45,Yes,Hrvatski,"Na tipkovnici nemam palatale osim ako ne pritisnem posebnu tipku, te zbog toga u samo jednom odgovoru koristim palatal",HR,ikavica,štokavski,1,2,Bila je,Hrvatski,Female,preAndPostAge8,Engleski,Nisam,Safari,Mac,900,1440,8.28075,
225,condition1,black_fish,"
crna",1878,16,fish,[],45,Yes,Hrvatski,"Na tipkovnici nemam palatale osim ako ne pritisnem posebnu tipku, te zbog toga u samo jednom odgovoru koristim palatal",HR,ikavica,štokavski,1,2,Bila je,Hrvatski,Female,preAndPostAge8,Engleski,Nisam,Safari,Mac,900,1440,8.28075,
225,condition1,red_key,"
crvena",2462,17,key,[],45,Yes,Hrvatski,"Na tipkovnici nemam palatale osim ako ne pritisnem posebnu tipku, te zbog toga u samo jednom odgovoru koristim palatal",HR,ikavica,štokavski,1,2,Bila je,Hrvatski,Female,preAndPostAge8,Engleski,Nisam,Safari,Mac,900,1440,8.28075,
225,condition1,black_basket,"
crna",2002,18,basket,[],45,Yes,Hrvatski,"Na tipkovnici nemam palatale osim ako ne pritisnem posebnu tipku, te zbog toga u samo jednom odgovoru koristim palatal",HR,ikavica,štokavski,1,2,Bila je,Hrvatski,Female,preAndPostAge8,Engleski,Nisam,Safari,Mac,900,1440,8.28075,
225,condition1,black_glove,"
crna",8443,19,glove,[],45,Yes,Hrvatski,"Na tipkovnici nemam palatale osim ako ne pritisnem posebnu tipku, te zbog toga u samo jednom odgovoru koristim palatal",HR,ikavica,štokavski,1,2,Bila je,Hrvatski,Female,preAndPostAge8,Engleski,Nisam,Safari,Mac,900,1440,8.28075,
225,condition1,purple_tie,"
ljubicasta",5491,20,tie,[],45,Yes,Hrvatski,"Na tipkovnici nemam palatale osim ako ne pritisnem posebnu tipku, te zbog toga u samo jednom odgovoru koristim palatal",HR,ikavica,štokavski,1,2,Bila je,Hrvatski,Female,preAndPostAge8,Engleski,Nisam,Safari,Mac,900,1440,8.28075,
225,condition1,black_shield,"
crna",2122,21,shield,[],45,Yes,Hrvatski,"Na tipkovnici nemam palatale osim ako ne pritisnem posebnu tipku, te zbog toga u samo jednom odgovoru koristim palatal",HR,ikavica,štokavski,1,2,Bila je,Hrvatski,Female,preAndPostAge8,Engleski,Nisam,Safari,Mac,900,1440,8.28075,
225,condition1,yellow_switch,"
zuta",1820,22,switch,[],45,Yes,Hrvatski,"Na tipkovnici nemam palatale osim ako ne pritisnem posebnu tipku, te zbog toga u samo jednom odgovoru koristim palatal",HR,ikavica,štokavski,1,2,Bila je,Hrvatski,Female,preAndPostAge8,Engleski,Nisam,Safari,Mac,900,1440,8.28075,
225,condition1,yellow_mask,"
zuta",3713,23,mask,[],45,Yes,Hrvatski,"Na tipkovnici nemam palatale osim ako ne pritisnem posebnu tipku, te zbog toga u samo jednom odgovoru koristim palatal",HR,ikavica,štokavski,1,2,Bila je,Hrvatski,Female,preAndPostAge8,Engleski,Nisam,Safari,Mac,900,1440,8.28075,
225,condition1,green_shell,"
zelena",8287,24,shell,[],45,Yes,Hrvatski,"Na tipkovnici nemam palatale osim ako ne pritisnem posebnu tipku, te zbog toga u samo jednom odgovoru koristim palatal",HR,ikavica,štokavski,1,2,Bila je,Hrvatski,Female,preAndPostAge8,Engleski,Nisam,Safari,Mac,900,1440,8.28075,
225,condition1,red_coathanger,"
crvena",2892,25,coathanger,[],45,Yes,Hrvatski,"Na tipkovnici nemam palatale osim ako ne pritisnem posebnu tipku, te zbog toga u samo jednom odgovoru koristim palatal",HR,ikavica,štokavski,1,2,Bila je,Hrvatski,Female,preAndPostAge8,Engleski,Nisam,Safari,Mac,900,1440,8.28075,
225,condition1,red_book,"
crvena",2361,26,book,[],45,Yes,Hrvatski,"Na tipkovnici nemam palatale osim ako ne pritisnem posebnu tipku, te zbog toga u samo jednom odgovoru koristim palatal",HR,ikavica,štokavski,1,2,Bila je,Hrvatski,Female,preAndPostAge8,Engleski,Nisam,Safari,Mac,900,1440,8.28075,
225,condition1,green_die,"
zeleno crna",5357,27,die,[],45,Yes,Hrvatski,"Na tipkovnici nemam palatale osim ako ne pritisnem posebnu tipku, te zbog toga u samo jednom odgovoru koristim palatal",HR,ikavica,štokavski,1,2,Bila je,Hrvatski,Female,preAndPostAge8,Engleski,Nisam,Safari,Mac,900,1440,8.28075,
225,condition1,white_present,"
bijela",2333,28,present,[],45,Yes,Hrvatski,"Na tipkovnici nemam palatale osim ako ne pritisnem posebnu tipku, te zbog toga u samo jednom odgovoru koristim palatal",HR,ikavica,štokavski,1,2,Bila je,Hrvatski,Female,preAndPostAge8,Engleski,Nisam,Safari,Mac,900,1440,8.28075,
225,condition1,green_slipper,"
zelena",2158,29,slipper,[],45,Yes,Hrvatski,"Na tipkovnici nemam palatale osim ako ne pritisnem posebnu tipku, te zbog toga u samo jednom odgovoru koristim palatal",HR,ikavica,štokavski,1,2,Bila je,Hrvatski,Female,preAndPostAge8,Engleski,Nisam,Safari,Mac,900,1440,8.28075,
225,condition1,white_ring,"
srebrna",2759,30,ring,[],45,Yes,Hrvatski,"Na tipkovnici nemam palatale osim ako ne pritisnem posebnu tipku, te zbog toga u samo jednom odgovoru koristim palatal",HR,ikavica,štokavski,1,2,Bila je,Hrvatski,Female,preAndPostAge8,Engleski,Nisam,Safari,Mac,900,1440,8.28075,
225,condition1,green_vase,"
zelena",2327,31,vase,[],45,Yes,Hrvatski,"Na tipkovnici nemam palatale osim ako ne pritisnem posebnu tipku, te zbog toga u samo jednom odgovoru koristim palatal",HR,ikavica,štokavski,1,2,Bila je,Hrvatski,Female,preAndPostAge8,Engleski,Nisam,Safari,Mac,900,1440,8.28075,
225,condition1,purple_shovel,"
ljubicasta",4016,32,shovel,[],45,Yes,Hrvatski,"Na tipkovnici nemam palatale osim ako ne pritisnem posebnu tipku, te zbog toga u samo jednom odgovoru koristim palatal",HR,ikavica,štokavski,1,2,Bila je,Hrvatski,Female,preAndPostAge8,Engleski,Nisam,Safari,Mac,900,1440,8.28075,
225,condition1,white_shirt,"
bijea",2113,33,shirt,[],45,Yes,Hrvatski,"Na tipkovnici nemam palatale osim ako ne pritisnem posebnu tipku, te zbog toga u samo jednom odgovoru koristim palatal",HR,ikavica,štokavski,1,2,Bila je,Hrvatski,Female,preAndPostAge8,Engleski,Nisam,Safari,Mac,900,1440,8.28075,
225,condition1,white_armchair,"
bijelo smeda",3940,34,armchair,[],45,Yes,Hrvatski,"Na tipkovnici nemam palatale osim ako ne pritisnem posebnu tipku, te zbog toga u samo jednom odgovoru koristim palatal",HR,ikavica,štokavski,1,2,Bila je,Hrvatski,Female,preAndPostAge8,Engleski,Nisam,Safari,Mac,900,1440,8.28075,
225,condition1,red_table,"
crvena",2095,35,table,[],45,Yes,Hrvatski,"Na tipkovnici nemam palatale osim ako ne pritisnem posebnu tipku, te zbog toga u samo jednom odgovoru koristim palatal",HR,ikavica,štokavski,1,2,Bila je,Hrvatski,Female,preAndPostAge8,Engleski,Nisam,Safari,Mac,900,1440,8.28075,
225,condition1,blue_flower,"
plava",5292,36,flower,[],45,Yes,Hrvatski,"Na tipkovnici nemam palatale osim ako ne pritisnem posebnu tipku, te zbog toga u samo jednom odgovoru koristim palatal",HR,ikavica,štokavski,1,2,Bila je,Hrvatski,Female,preAndPostAge8,Engleski,Nisam,Safari,Mac,900,1440,8.28075,
225,condition1,orange_ribbon,"
smeda",2533,37,ribbon,[],45,Yes,Hrvatski,"Na tipkovnici nemam palatale osim ako ne pritisnem posebnu tipku, te zbog toga u samo jednom odgovoru koristim palatal",HR,ikavica,štokavski,1,2,Bila je,Hrvatski,Female,preAndPostAge8,Engleski,Nisam,Safari,Mac,900,1440,8.28075,
225,condition1,white_door,"
bijela",2684,38,door,[],45,Yes,Hrvatski,"Na tipkovnici nemam palatale osim ako ne pritisnem posebnu tipku, te zbog toga u samo jednom odgovoru koristim palatal",HR,ikavica,štokavski,1,2,Bila je,Hrvatski,Female,preAndPostAge8,Engleski,Nisam,Safari,Mac,900,1440,8.28075,
225,condition1,green_camera,"
zelena",2145,39,camera,[],45,Yes,Hrvatski,"Na tipkovnici nemam palatale osim ako ne pritisnem posebnu tipku, te zbog toga u samo jednom odgovoru koristim palatal",HR,ikavica,štokavski,1,2,Bila je,Hrvatski,Female,preAndPostAge8,Engleski,Nisam,Safari,Mac,900,1440,8.28075,
225,condition1,black_screwdriver,"
crno srebrna",4234,40,screwdriver,[],45,Yes,Hrvatski,"Na tipkovnici nemam palatale osim ako ne pritisnem posebnu tipku, te zbog toga u samo jednom odgovoru koristim palatal",HR,ikavica,štokavski,1,2,Bila je,Hrvatski,Female,preAndPostAge8,Engleski,Nisam,Safari,Mac,900,1440,8.28075,
225,condition1,purple_hammer,"
ljubicasto srebrna",8086,41,hammer,[],45,Yes,Hrvatski,"Na tipkovnici nemam palatale osim ako ne pritisnem posebnu tipku, te zbog toga u samo jednom odgovoru koristim palatal",HR,ikavica,štokavski,1,2,Bila je,Hrvatski,Female,preAndPostAge8,Engleski,Nisam,Safari,Mac,900,1440,8.28075,
225,condition1,orange_dresser,"
smeda",3864,42,dresser,[],45,Yes,Hrvatski,"Na tipkovnici nemam palatale osim ako ne pritisnem posebnu tipku, te zbog toga u samo jednom odgovoru koristim palatal",HR,ikavica,štokavski,1,2,Bila je,Hrvatski,Female,preAndPostAge8,Engleski,Nisam,Safari,Mac,900,1440,8.28075,
225,condition1,yellow_chair,"
zuta",3109,43,chair,[],45,Yes,Hrvatski,"Na tipkovnici nemam palatale osim ako ne pritisnem posebnu tipku, te zbog toga u samo jednom odgovoru koristim palatal",HR,ikavica,štokavski,1,2,Bila je,Hrvatski,Female,preAndPostAge8,Engleski,Nisam,Safari,Mac,900,1440,8.28075,
225,condition1,blue_billiardball,"
plavo bijelo plava",5324,44,billiardball,[],45,Yes,Hrvatski,"Na tipkovnici nemam palatale osim ako ne pritisnem posebnu tipku, te zbog toga u samo jednom odgovoru koristim palatal",HR,ikavica,štokavski,1,2,Bila je,Hrvatski,Female,preAndPostAge8,Engleski,Nisam,Safari,Mac,900,1440,8.28075,
225,condition1,purple_razor,"
ljubicasta",3141,45,razor,[],45,Yes,Hrvatski,"Na tipkovnici nemam palatale osim ako ne pritisnem posebnu tipku, te zbog toga u samo jednom odgovoru koristim palatal",HR,ikavica,štokavski,1,2,Bila je,Hrvatski,Female,preAndPostAge8,Engleski,Nisam,Safari,Mac,900,1440,8.28075,
225,condition1,purple_drum,"
ljubicasto bijela",5720,46,drum,[],45,Yes,Hrvatski,"Na tipkovnici nemam palatale osim ako ne pritisnem posebnu tipku, te zbog toga u samo jednom odgovoru koristim palatal",HR,ikavica,štokavski,1,2,Bila je,Hrvatski,Female,preAndPostAge8,Engleski,Nisam,Safari,Mac,900,1440,8.28075,
225,condition1,black_binoculars,"
crvena",4474,47,binoculars,[],45,Yes,Hrvatski,"Na tipkovnici nemam palatale osim ako ne pritisnem posebnu tipku, te zbog toga u samo jednom odgovoru koristim palatal",HR,ikavica,štokavski,1,2,Bila je,Hrvatski,Female,preAndPostAge8,Engleski,Nisam,Safari,Mac,900,1440,8.28075,
225,condition1,white_napkin,"
bijela",3112,48,napkin,[],45,Yes,Hrvatski,"Na tipkovnici nemam palatale osim ako ne pritisnem posebnu tipku, te zbog toga u samo jednom odgovoru koristim palatal",HR,ikavica,štokavski,1,2,Bila je,Hrvatski,Female,preAndPostAge8,Engleski,Nisam,Safari,Mac,900,1440,8.28075,
225,condition1,orange_boot,"
smede crna",5015,49,boot,[],45,Yes,Hrvatski,"Na tipkovnici nemam palatale osim ako ne pritisnem posebnu tipku, te zbog toga u samo jednom odgovoru koristim palatal",HR,ikavica,štokavski,1,2,Bila je,Hrvatski,Female,preAndPostAge8,Engleski,Nisam,Safari,Mac,900,1440,8.28075,
225,condition1,purple_ladle,"
ljubicasta",2952,50,ladle,[],45,Yes,Hrvatski,"Na tipkovnici nemam palatale osim ako ne pritisnem posebnu tipku, te zbog toga u samo jednom odgovoru koristim palatal",HR,ikavica,štokavski,1,2,Bila je,Hrvatski,Female,preAndPostAge8,Engleski,Nisam,Safari,Mac,900,1440,8.28075,
225,condition1,red_binder,"
crvena",1881,51,binder,[],45,Yes,Hrvatski,"Na tipkovnici nemam palatale osim ako ne pritisnem posebnu tipku, te zbog toga u samo jednom odgovoru koristim palatal",HR,ikavica,štokavski,1,2,Bila je,Hrvatski,Female,preAndPostAge8,Engleski,Nisam,Safari,Mac,900,1440,8.28075,
225,condition1,black_fork,"
crna",2781,52,fork,[],45,Yes,Hrvatski,"Na tipkovnici nemam palatale osim ako ne pritisnem posebnu tipku, te zbog toga u samo jednom odgovoru koristim palatal",HR,ikavica,štokavski,1,2,Bila je,Hrvatski,Female,preAndPostAge8,Engleski,Nisam,Safari,Mac,900,1440,8.28075,
225,condition1,orange_microscope,"
narancasto crno srebrna",7928,53,microscope,[],45,Yes,Hrvatski,"Na tipkovnici nemam palatale osim ako ne pritisnem posebnu tipku, te zbog toga u samo jednom odgovoru koristim palatal",HR,ikavica,štokavski,1,2,Bila je,Hrvatski,Female,preAndPostAge8,Engleski,Nisam,Safari,Mac,900,1440,8.28075,
225,condition1,orange_robot,"
smede bijela",7461,54,robot,[],45,Yes,Hrvatski,"Na tipkovnici nemam palatale osim ako ne pritisnem posebnu tipku, te zbog toga u samo jednom odgovoru koristim palatal",HR,ikavica,štokavski,1,2,Bila je,Hrvatski,Female,preAndPostAge8,Engleski,Nisam,Safari,Mac,900,1440,8.28075,
225,condition1,purple_calendar,"
ljubicasto bijela",6122,55,calendar,[],45,Yes,Hrvatski,"Na tipkovnici nemam palatale osim ako ne pritisnem posebnu tipku, te zbog toga u samo jednom odgovoru koristim palatal",HR,ikavica,štokavski,1,2,Bila je,Hrvatski,Female,preAndPostAge8,Engleski,Nisam,Safari,Mac,900,1440,8.28075,
225,condition1,white_bike,"
srebrna",23983,56,bike,[],45,Yes,Hrvatski,"Na tipkovnici nemam palatale osim ako ne pritisnem posebnu tipku, te zbog toga u samo jednom odgovoru koristim palatal",HR,ikavica,štokavski,1,2,Bila je,Hrvatski,Female,preAndPostAge8,Engleski,Nisam,Safari,Mac,900,1440,8.28075,
225,condition1,red_notebook,"
crvena",2436,57,notebook,[],45,Yes,Hrvatski,"Na tipkovnici nemam palatale osim ako ne pritisnem posebnu tipku, te zbog toga u samo jednom odgovoru koristim palatal",HR,ikavica,štokavski,1,2,Bila je,Hrvatski,Female,preAndPostAge8,Engleski,Nisam,Safari,Mac,900,1440,8.28075,
225,condition1,black_sock,"
crna",1689,58,sock,[],45,Yes,Hrvatski,"Na tipkovnici nemam palatale osim ako ne pritisnem posebnu tipku, te zbog toga u samo jednom odgovoru koristim palatal",HR,ikavica,štokavski,1,2,Bila je,Hrvatski,Female,preAndPostAge8,Engleski,Nisam,Safari,Mac,900,1440,8.28075,
225,condition1,blue_guitar,"
plava",2243,59,guitar,[],45,Yes,Hrvatski,"Na tipkovnici nemam palatale osim ako ne pritisnem posebnu tipku, te zbog toga u samo jednom odgovoru koristim palatal",HR,ikavica,štokavski,1,2,Bila je,Hrvatski,Female,preAndPostAge8,Engleski,Nisam,Safari,Mac,900,1440,8.28075,
225,condition1,white_bracelet,"
bije;a",2798,60,bracelet,[],45,Yes,Hrvatski,"Na tipkovnici nemam palatale osim ako ne pritisnem posebnu tipku, te zbog toga u samo jednom odgovoru koristim palatal",HR,ikavica,štokavski,1,2,Bila je,Hrvatski,Female,preAndPostAge8,Engleski,Nisam,Safari,Mac,900,1440,8.28075,
225,condition1,purple_knife,"
ljubicasta",3836,61,knife,[],45,Yes,Hrvatski,"Na tipkovnici nemam palatale osim ako ne pritisnem posebnu tipku, te zbog toga u samo jednom odgovoru koristim palatal",HR,ikavica,štokavski,1,2,Bila je,Hrvatski,Female,preAndPostAge8,Engleski,Nisam,Safari,Mac,900,1440,8.28075,
225,condition1,blue_stapler,"
plava",2073,62,stapler,[],45,Yes,Hrvatski,"Na tipkovnici nemam palatale osim ako ne pritisnem posebnu tipku, te zbog toga u samo jednom odgovoru koristim palatal",HR,ikavica,štokavski,1,2,Bila je,Hrvatski,Female,preAndPostAge8,Engleski,Nisam,Safari,Mac,900,1440,8.28075,
225,condition1,blue_ruler,"
plava",2294,63,ruler,[],45,Yes,Hrvatski,"Na tipkovnici nemam palatale osim ako ne pritisnem posebnu tipku, te zbog toga u samo jednom odgovoru koristim palatal",HR,ikavica,štokavski,1,2,Bila je,Hrvatski,Female,preAndPostAge8,Engleski,Nisam,Safari,Mac,900,1440,8.28075,
225,condition1,purple_tent,"
ljubicasta",3148,64,tent,[],45,Yes,Hrvatski,"Na tipkovnici nemam palatale osim ako ne pritisnem posebnu tipku, te zbog toga u samo jednom odgovoru koristim palatal",HR,ikavica,štokavski,1,2,Bila je,Hrvatski,Female,preAndPostAge8,Engleski,Nisam,Safari,Mac,900,1440,8.28075,
225,condition1,red_calculator,"
crvena",2053,65,calculator,[],45,Yes,Hrvatski,"Na tipkovnici nemam palatale osim ako ne pritisnem posebnu tipku, te zbog toga u samo jednom odgovoru koristim palatal",HR,ikavica,štokavski,1,2,Bila je,Hrvatski,Female,preAndPostAge8,Engleski,Nisam,Safari,Mac,900,1440,8.28075,
225,condition1,purple_necklace,"
ljubicasta",2959,66,necklace,[],45,Yes,Hrvatski,"Na tipkovnici nemam palatale osim ako ne pritisnem posebnu tipku, te zbog toga u samo jednom odgovoru koristim palatal",HR,ikavica,štokavski,1,2,Bila je,Hrvatski,Female,preAndPostAge8,Engleski,Nisam,Safari,Mac,900,1440,8.28075,
225,condition1,white_iron,"
bijelo siva",3181,67,iron,[],45,Yes,Hrvatski,"Na tipkovnici nemam palatale osim ako ne pritisnem posebnu tipku, te zbog toga u samo jednom odgovoru koristim palatal",HR,ikavica,štokavski,1,2,Bila je,Hrvatski,Female,preAndPostAge8,Engleski,Nisam,Safari,Mac,900,1440,8.28075,
225,condition1,green_bowl,"
zelena",2493,68,bowl,[],45,Yes,Hrvatski,"Na tipkovnici nemam palatale osim ako ne pritisnem posebnu tipku, te zbog toga u samo jednom odgovoru koristim palatal",HR,ikavica,štokavski,1,2,Bila je,Hrvatski,Female,preAndPostAge8,Engleski,Nisam,Safari,Mac,900,1440,8.28075,
225,condition1,black_bandaid,"
crna",1871,69,bandaid,[],45,Yes,Hrvatski,"Na tipkovnici nemam palatale osim ako ne pritisnem posebnu tipku, te zbog toga u samo jednom odgovoru koristim palatal",HR,ikavica,štokavski,1,2,Bila je,Hrvatski,Female,preAndPostAge8,Engleski,Nisam,Safari,Mac,900,1440,8.28075,
225,condition1,blue_clock,"
plava",1885,70,clock,[],45,Yes,Hrvatski,"Na tipkovnici nemam palatale osim ako ne pritisnem posebnu tipku, te zbog toga u samo jednom odgovoru koristim palatal",HR,ikavica,štokavski,1,2,Bila je,Hrvatski,Female,preAndPostAge8,Engleski,Nisam,Safari,Mac,900,1440,8.28075,
225,condition1,white_ornament,"
bijela",3675,71,ornament,[],45,Yes,Hrvatski,"Na tipkovnici nemam palatale osim ako ne pritisnem posebnu tipku, te zbog toga u samo jednom odgovoru koristim palatal",HR,ikavica,štokavski,1,2,Bila je,Hrvatski,Female,preAndPostAge8,Engleski,Nisam,Safari,Mac,900,1440,8.28075,
225,condition1,yellow_cushion,"
zuta",2153,72,cushion,[],45,Yes,Hrvatski,"Na tipkovnici nemam palatale osim ako ne pritisnem posebnu tipku, te zbog toga u samo jednom odgovoru koristim palatal",HR,ikavica,štokavski,1,2,Bila je,Hrvatski,Female,preAndPostAge8,Engleski,Nisam,Safari,Mac,900,1440,8.28075,
225,condition1,purple_umbrella,"
ljubicasta",3123,73,umbrella,[],45,Yes,Hrvatski,"Na tipkovnici nemam palatale osim ako ne pritisnem posebnu tipku, te zbog toga u samo jednom odgovoru koristim palatal",HR,ikavica,štokavski,1,2,Bila je,Hrvatski,Female,preAndPostAge8,Engleski,Nisam,Safari,Mac,900,1440,8.28075,
225,condition1,black_radio,"
crna",1977,74,radio,[],45,Yes,Hrvatski,"Na tipkovnici nemam palatale osim ako ne pritisnem posebnu tipku, te zbog toga u samo jednom odgovoru koristim palatal",HR,ikavica,štokavski,1,2,Bila je,Hrvatski,Female,preAndPostAge8,Engleski,Nisam,Safari,Mac,900,1440,8.28075,
225,condition1,blue_scarf,"
plava",2492,75,scarf,[],45,Yes,Hrvatski,"Na tipkovnici nemam palatale osim ako ne pritisnem posebnu tipku, te zbog toga u samo jednom odgovoru koristim palatal",HR,ikavica,štokavski,1,2,Bila je,Hrvatski,Female,preAndPostAge8,Engleski,Nisam,Safari,Mac,900,1440,8.28075,
225,condition1,orange_remote,"
narancasta",2971,76,remote,[],45,Yes,Hrvatski,"Na tipkovnici nemam palatale osim ako ne pritisnem posebnu tipku, te zbog toga u samo jednom odgovoru koristim palatal",HR,ikavica,štokavski,1,2,Bila je,Hrvatski,Female,preAndPostAge8,Engleski,Nisam,Safari,Mac,900,1440,8.28075,
225,condition1,black_truck,"
crna",1893,77,truck,[],45,Yes,Hrvatski,"Na tipkovnici nemam palatale osim ako ne pritisnem posebnu tipku, te zbog toga u samo jednom odgovoru koristim palatal",HR,ikavica,štokavski,1,2,Bila je,Hrvatski,Female,preAndPostAge8,Engleski,Nisam,Safari,Mac,900,1440,8.28075,
225,condition1,yellow_fryingpan,"
zlatna",2455,78,fryingpan,[],45,Yes,Hrvatski,"Na tipkovnici nemam palatale osim ako ne pritisnem posebnu tipku, te zbog toga u samo jednom odgovoru koristim palatal",HR,ikavica,štokavski,1,2,Bila je,Hrvatski,Female,preAndPostAge8,Engleski,Nisam,Safari,Mac,900,1440,8.28075,
225,condition1,orange_helicopter,"
narancasta",3390,79,helicopter,[],45,Yes,Hrvatski,"Na tipkovnici nemam palatale osim ako ne pritisnem posebnu tipku, te zbog toga u samo jednom odgovoru koristim palatal",HR,ikavica,štokavski,1,2,Bila je,Hrvatski,Female,preAndPostAge8,Engleski,Nisam,Safari,Mac,900,1440,8.28075,
225,condition1,white_comb,"
bijela",4828,80,comb,[],45,Yes,Hrvatski,"Na tipkovnici nemam palatale osim ako ne pritisnem posebnu tipku, te zbog toga u samo jednom odgovoru koristim palatal",HR,ikavica,štokavski,1,2,Bila je,Hrvatski,Female,preAndPostAge8,Engleski,Nisam,Safari,Mac,900,1440,8.28075,
225,condition1,yellow_frame,"
zuta",1888,81,frame,[],45,Yes,Hrvatski,"Na tipkovnici nemam palatale osim ako ne pritisnem posebnu tipku, te zbog toga u samo jednom odgovoru koristim palatal",HR,ikavica,štokavski,1,2,Bila je,Hrvatski,Female,preAndPostAge8,Engleski,Nisam,Safari,Mac,900,1440,8.28075,
225,condition1,white_mouse,"
bijela",4853,82,mouse,[],45,Yes,Hrvatski,"Na tipkovnici nemam palatale osim ako ne pritisnem posebnu tipku, te zbog toga u samo jednom odgovoru koristim palatal",HR,ikavica,štokavski,1,2,Bila je,Hrvatski,Female,preAndPostAge8,Engleski,Nisam,Safari,Mac,900,1440,8.28075,
225,condition1,yellow_yarn,"
zuta",1871,83,yarn,[],45,Yes,Hrvatski,"Na tipkovnici nemam palatale osim ako ne pritisnem posebnu tipku, te zbog toga u samo jednom odgovoru koristim palatal",HR,ikavica,štokavski,1,2,Bila je,Hrvatski,Female,preAndPostAge8,Engleski,Nisam,Safari,Mac,900,1440,8.28075,
225,condition1,blue_bed,"
\plava",2052,84,bed,[],45,Yes,Hrvatski,"Na tipkovnici nemam palatale osim ako ne pritisnem posebnu tipku, te zbog toga u samo jednom odgovoru koristim palatal",HR,ikavica,štokavski,1,2,Bila je,Hrvatski,Female,preAndPostAge8,Engleski,Nisam,Safari,Mac,900,1440,8.28075,
225,condition1,yellow_rug,"
zuta",2059,85,rug,[],45,Yes,Hrvatski,"Na tipkovnici nemam palatale osim ako ne pritisnem posebnu tipku, te zbog toga u samo jednom odgovoru koristim palatal",HR,ikavica,štokavski,1,2,Bila je,Hrvatski,Female,preAndPostAge8,Engleski,Nisam,Safari,Mac,900,1440,8.28075,
225,condition1,red_magnifyingglass,"
crvena",2054,86,magnifyingglass,[],45,Yes,Hrvatski,"Na tipkovnici nemam palatale osim ako ne pritisnem posebnu tipku, te zbog toga u samo jednom odgovoru koristim palatal",HR,ikavica,štokavski,1,2,Bila je,Hrvatski,Female,preAndPostAge8,Engleski,Nisam,Safari,Mac,900,1440,8.28075,
225,condition1,blue_butterfly,"
plava",2487,87,butterfly,[],45,Yes,Hrvatski,"Na tipkovnici nemam palatale osim ako ne pritisnem posebnu tipku, te zbog toga u samo jednom odgovoru koristim palatal",HR,ikavica,štokavski,1,2,Bila je,Hrvatski,Female,preAndPostAge8,Engleski,Nisam,Safari,Mac,900,1440,8.28075,
225,condition1,blue_lamp,"
plava",1955,88,lamp,[],45,Yes,Hrvatski,"Na tipkovnici nemam palatale osim ako ne pritisnem posebnu tipku, te zbog toga u samo jednom odgovoru koristim palatal",HR,ikavica,štokavski,1,2,Bila je,Hrvatski,Female,preAndPostAge8,Engleski,Nisam,Safari,Mac,900,1440,8.28075,
225,condition1,red_sword,"
crvena",2824,89,sword,[],45,Yes,Hrvatski,"Na tipkovnici nemam palatale osim ako ne pritisnem posebnu tipku, te zbog toga u samo jednom odgovoru koristim palatal",HR,ikavica,štokavski,1,2,Bila je,Hrvatski,Female,preAndPostAge8,Engleski,Nisam,Safari,Mac,900,1440,8.28075,
225,condition1,purple_whistle,"
ljubicasta",3315,90,whistle,[],45,Yes,Hrvatski,"Na tipkovnici nemam palatale osim ako ne pritisnem posebnu tipku, te zbog toga u samo jednom odgovoru koristim palatal",HR,ikavica,štokavski,1,2,Bila je,Hrvatski,Female,preAndPostAge8,Engleski,Nisam,Safari,Mac,900,1440,8.28075,
225,condition1,blue_belt,"
plava",5320,91,belt,[],45,Yes,Hrvatski,"Na tipkovnici nemam palatale osim ako ne pritisnem posebnu tipku, te zbog toga u samo jednom odgovoru koristim palatal",HR,ikavica,štokavski,1,2,Bila je,Hrvatski,Female,preAndPostAge8,Engleski,Nisam,Safari,Mac,900,1440,8.28075,
225,condition1,white_dustpan,"
bijela",2368,92,dustpan,[],45,Yes,Hrvatski,"Na tipkovnici nemam palatale osim ako ne pritisnem posebnu tipku, te zbog toga u samo jednom odgovoru koristim palatal",HR,ikavica,štokavski,1,2,Bila je,Hrvatski,Female,preAndPostAge8,Engleski,Nisam,Safari,Mac,900,1440,8.28075,
225,condition1,orange_luggage,"
narancasta",3481,93,luggage,[],45,Yes,Hrvatski,"Na tipkovnici nemam palatale osim ako ne pritisnem posebnu tipku, te zbog toga u samo jednom odgovoru koristim palatal",HR,ikavica,štokavski,1,2,Bila je,Hrvatski,Female,preAndPostAge8,Engleski,Nisam,Safari,Mac,900,1440,8.28075,
225,condition1,red_dress,"
crvena",6744,94,dress,[],45,Yes,Hrvatski,"Na tipkovnici nemam palatale osim ako ne pritisnem posebnu tipku, te zbog toga u samo jednom odgovoru koristim palatal",HR,ikavica,štokavski,1,2,Bila je,Hrvatski,Female,preAndPostAge8,Engleski,Nisam,Safari,Mac,900,1440,8.28075,
225,condition1,red_pencil,"
crvena",1981,95,pencil,[],45,Yes,Hrvatski,"Na tipkovnici nemam palatale osim ako ne pritisnem posebnu tipku, te zbog toga u samo jednom odgovoru koristim palatal",HR,ikavica,štokavski,1,2,Bila je,Hrvatski,Female,preAndPostAge8,Engleski,Nisam,Safari,Mac,900,1440,8.28075,
225,condition1,black_bonbon,"
crna",2054,96,bonbon,[],45,Yes,Hrvatski,"Na tipkovnici nemam palatale osim ako ne pritisnem posebnu tipku, te zbog toga u samo jednom odgovoru koristim palatal",HR,ikavica,štokavski,1,2,Bila je,Hrvatski,Female,preAndPostAge8,Engleski,Nisam,Safari,Mac,900,1440,8.28075,
225,condition1,green_tv,"
zelena",2304,97,tv,[],45,Yes,Hrvatski,"Na tipkovnici nemam palatale osim ako ne pritisnem posebnu tipku, te zbog toga u samo jednom odgovoru koristim palatal",HR,ikavica,štokavski,1,2,Bila je,Hrvatski,Female,preAndPostAge8,Engleski,Nisam,Safari,Mac,900,1440,8.28075,
225,condition1,red_phone,"
crvena",2792,98,phone,[],45,Yes,Hrvatski,"Na tipkovnici nemam palatale osim ako ne pritisnem posebnu tipku, te zbog toga u samo jednom odgovoru koristim palatal",HR,ikavica,štokavski,1,2,Bila je,Hrvatski,Female,preAndPostAge8,Engleski,Nisam,Safari,Mac,900,1440,8.28075,
225,condition1,yellow_balloon,"
zuta",1912,99,balloon,[],45,Yes,Hrvatski,"Na tipkovnici nemam palatale osim ako ne pritisnem posebnu tipku, te zbog toga u samo jednom odgovoru koristim palatal",HR,ikavica,štokavski,1,2,Bila je,Hrvatski,Female,preAndPostAge8,Engleski,Nisam,Safari,Mac,900,1440,8.28075,
225,condition1,black_cake,"
crna",1968,100,cake,[],45,Yes,Hrvatski,"Na tipkovnici nemam palatale osim ako ne pritisnem posebnu tipku, te zbog toga u samo jednom odgovoru koristim palatal",HR,ikavica,štokavski,1,2,Bila je,Hrvatski,Female,preAndPostAge8,Engleski,Nisam,Safari,Mac,900,1440,8.28075,
225,condition1,red_crown,"
crvena",2227,101,crown,[],45,Yes,Hrvatski,"Na tipkovnici nemam palatale osim ako ne pritisnem posebnu tipku, te zbog toga u samo jednom odgovoru koristim palatal",HR,ikavica,štokavski,1,2,Bila je,Hrvatski,Female,preAndPostAge8,Engleski,Nisam,Safari,Mac,900,1440,8.28075,
225,condition1,green_rope,"
zelena",2242,102,rope,[],45,Yes,Hrvatski,"Na tipkovnici nemam palatale osim ako ne pritisnem posebnu tipku, te zbog toga u samo jednom odgovoru koristim palatal",HR,ikavica,štokavski,1,2,Bila je,Hrvatski,Female,preAndPostAge8,Engleski,Nisam,Safari,Mac,900,1440,8.28075,
225,condition1,white_shoe,"
bijela\",2570,103,shoe,[],45,Yes,Hrvatski,"Na tipkovnici nemam palatale osim ako ne pritisnem posebnu tipku, te zbog toga u samo jednom odgovoru koristim palatal",HR,ikavica,štokavski,1,2,Bila je,Hrvatski,Female,preAndPostAge8,Engleski,Nisam,Safari,Mac,900,1440,8.28075,
225,condition1,yellow_wallet,"
zuta",1972,104,wallet,[],45,Yes,Hrvatski,"Na tipkovnici nemam palatale osim ako ne pritisnem posebnu tipku, te zbog toga u samo jednom odgovoru koristim palatal",HR,ikavica,štokavski,1,2,Bila je,Hrvatski,Female,preAndPostAge8,Engleski,Nisam,Safari,Mac,900,1440,8.28075,
225,condition1,black_plate,"
crna",1704,105,plate,[],45,Yes,Hrvatski,"Na tipkovnici nemam palatale osim ako ne pritisnem posebnu tipku, te zbog toga u samo jednom odgovoru koristim palatal",HR,ikavica,štokavski,1,2,Bila je,Hrvatski,Female,preAndPostAge8,Engleski,Nisam,Safari,Mac,900,1440,8.28075,
225,condition1,red_fence,"
crvena",2309,106,fence,[],45,Yes,Hrvatski,"Na tipkovnici nemam palatale osim ako ne pritisnem posebnu tipku, te zbog toga u samo jednom odgovoru koristim palatal",HR,ikavica,štokavski,1,2,Bila je,Hrvatski,Female,preAndPostAge8,Engleski,Nisam,Safari,Mac,900,1440,8.28075,
282,condition1,green_umbrella,zeleni,6081,2,umbrella,[],38,Yes,Bosanski,Nebi bilo lose da ste napisali u vezi cega je ovo. ,BIH,ijekavica,štokavski,2,1,vjerovatno,Bosanski,Male,postAge8,"Engleski, malo njeamckog",Ne,Chrome,Windows,1440,2560,8.935966666666667,
282,condition1,blue_candle,plavi,4688,3,candle,[],38,Yes,Bosanski,Nebi bilo lose da ste napisali u vezi cega je ovo. ,BIH,ijekavica,štokavski,2,1,vjerovatno,Bosanski,Male,postAge8,"Engleski, malo njeamckog",Ne,Chrome,Windows,1440,2560,8.935966666666667,
282,condition1,red_bike,crveni,5607,4,bike,[],38,Yes,Bosanski,Nebi bilo lose da ste napisali u vezi cega je ovo. ,BIH,ijekavica,štokavski,2,1,vjerovatno,Bosanski,Male,postAge8,"Engleski, malo njeamckog",Ne,Chrome,Windows,1440,2560,8.935966666666667,
282,condition1,yellow_flower,zuti,4431,5,flower,[],38,Yes,Bosanski,Nebi bilo lose da ste napisali u vezi cega je ovo. ,BIH,ijekavica,štokavski,2,1,vjerovatno,Bosanski,Male,postAge8,"Engleski, malo njeamckog",Ne,Chrome,Windows,1440,2560,8.935966666666667,
282,condition1,white_calculator,sivi,7719,6,calculator,[],38,Yes,Bosanski,Nebi bilo lose da ste napisali u vezi cega je ovo. ,BIH,ijekavica,štokavski,2,1,vjerovatno,Bosanski,Male,postAge8,"Engleski, malo njeamckog",Ne,Chrome,Windows,1440,2560,8.935966666666667,
282,condition1,yellow_iron,zuti,5494,7,iron,[],38,Yes,Bosanski,Nebi bilo lose da ste napisali u vezi cega je ovo. ,BIH,ijekavica,štokavski,2,1,vjerovatno,Bosanski,Male,postAge8,"Engleski, malo njeamckog",Ne,Chrome,Windows,1440,2560,8.935966666666667,
282,condition1,purple_binoculars,ljubicasti,5220,8,binoculars,[],38,Yes,Bosanski,Nebi bilo lose da ste napisali u vezi cega je ovo. ,BIH,ijekavica,štokavski,2,1,vjerovatno,Bosanski,Male,postAge8,"Engleski, malo njeamckog",Ne,Chrome,Windows,1440,2560,8.935966666666667,
282,condition1,blue_butterfly,plavi,3745,9,butterfly,[],38,Yes,Bosanski,Nebi bilo lose da ste napisali u vezi cega je ovo. ,BIH,ijekavica,štokavski,2,1,vjerovatno,Bosanski,Male,postAge8,"Engleski, malo njeamckog",Ne,Chrome,Windows,1440,2560,8.935966666666667,
282,condition1,orange_calendar,narandzasti,6688,10,calendar,[],38,Yes,Bosanski,Nebi bilo lose da ste napisali u vezi cega je ovo. ,BIH,ijekavica,štokavski,2,1,vjerovatno,Bosanski,Male,postAge8,"Engleski, malo njeamckog",Ne,Chrome,Windows,1440,2560,8.935966666666667,
282,condition1,purple_shovel,ljubicasti,4672,11,shovel,[],38,Yes,Bosanski,Nebi bilo lose da ste napisali u vezi cega je ovo. ,BIH,ijekavica,štokavski,2,1,vjerovatno,Bosanski,Male,postAge8,"Engleski, malo njeamckog",Ne,Chrome,Windows,1440,2560,8.935966666666667,
282,condition1,black_knife,crni,3964,12,knife,[],38,Yes,Bosanski,Nebi bilo lose da ste napisali u vezi cega je ovo. ,BIH,ijekavica,štokavski,2,1,vjerovatno,Bosanski,Male,postAge8,"Engleski, malo njeamckog",Ne,Chrome,Windows,1440,2560,8.935966666666667,
282,condition1,blue_armchair,plavo smedji,7807,13,armchair,[],38,Yes,Bosanski,Nebi bilo lose da ste napisali u vezi cega je ovo. ,BIH,ijekavica,štokavski,2,1,vjerovatno,Bosanski,Male,postAge8,"Engleski, malo njeamckog",Ne,Chrome,Windows,1440,2560,8.935966666666667,
282,condition1,green_shield,zeleno smedji,9069,14,shield,[],38,Yes,Bosanski,Nebi bilo lose da ste napisali u vezi cega je ovo. ,BIH,ijekavica,štokavski,2,1,vjerovatno,Bosanski,Male,postAge8,"Engleski, malo njeamckog",Ne,Chrome,Windows,1440,2560,8.935966666666667,
282,condition1,purple_lock,ljubicasti,5221,15,lock,[],38,Yes,Bosanski,Nebi bilo lose da ste napisali u vezi cega je ovo. ,BIH,ijekavica,štokavski,2,1,vjerovatno,Bosanski,Male,postAge8,"Engleski, malo njeamckog",Ne,Chrome,Windows,1440,2560,8.935966666666667,
282,condition1,yellow_dustpan,zuti,3737,16,dustpan,[],38,Yes,Bosanski,Nebi bilo lose da ste napisali u vezi cega je ovo. ,BIH,ijekavica,štokavski,2,1,vjerovatno,Bosanski,Male,postAge8,"Engleski, malo njeamckog",Ne,Chrome,Windows,1440,2560,8.935966666666667,
282,condition1,purple_razor,ljubicasti,5258,17,razor,[],38,Yes,Bosanski,Nebi bilo lose da ste napisali u vezi cega je ovo. ,BIH,ijekavica,štokavski,2,1,vjerovatno,Bosanski,Male,postAge8,"Engleski, malo njeamckog",Ne,Chrome,Windows,1440,2560,8.935966666666667,
282,condition1,purple_box,"
ljubicasti",5320,18,box,[],38,Yes,Bosanski,Nebi bilo lose da ste napisali u vezi cega je ovo. ,BIH,ijekavica,štokavski,2,1,vjerovatno,Bosanski,Male,postAge8,"Engleski, malo njeamckog",Ne,Chrome,Windows,1440,2560,8.935966666666667,
282,condition1,red_dress,"
crveni",4776,19,dress,[],38,Yes,Bosanski,Nebi bilo lose da ste napisali u vezi cega je ovo. ,BIH,ijekavica,štokavski,2,1,vjerovatno,Bosanski,Male,postAge8,"Engleski, malo njeamckog",Ne,Chrome,Windows,1440,2560,8.935966666666667,
282,condition1,blue_ornament,"
plavi",2152,20,ornament,[],38,Yes,Bosanski,Nebi bilo lose da ste napisali u vezi cega je ovo. ,BIH,ijekavica,štokavski,2,1,vjerovatno,Bosanski,Male,postAge8,"Engleski, malo njeamckog",Ne,Chrome,Windows,1440,2560,8.935966666666667,
282,condition1,blue_pencil,"
plavi",2016,21,pencil,[],38,Yes,Bosanski,Nebi bilo lose da ste napisali u vezi cega je ovo. ,BIH,ijekavica,štokavski,2,1,vjerovatno,Bosanski,Male,postAge8,"Engleski, malo njeamckog",Ne,Chrome,Windows,1440,2560,8.935966666666667,
282,condition1,yellow_balloon,"
zuti",2160,22,balloon,[],38,Yes,Bosanski,Nebi bilo lose da ste napisali u vezi cega je ovo. ,BIH,ijekavica,štokavski,2,1,vjerovatno,Bosanski,Male,postAge8,"Engleski, malo njeamckog",Ne,Chrome,Windows,1440,2560,8.935966666666667,
282,condition1,white_lamp,"
bijeli",2280,23,lamp,[],38,Yes,Bosanski,Nebi bilo lose da ste napisali u vezi cega je ovo. ,BIH,ijekavica,štokavski,2,1,vjerovatno,Bosanski,Male,postAge8,"Engleski, malo njeamckog",Ne,Chrome,Windows,1440,2560,8.935966666666667,
282,condition1,yellow_crown,"
zuti",2192,24,crown,[],38,Yes,Bosanski,Nebi bilo lose da ste napisali u vezi cega je ovo. ,BIH,ijekavica,štokavski,2,1,vjerovatno,Bosanski,Male,postAge8,"Engleski, malo njeamckog",Ne,Chrome,Windows,1440,2560,8.935966666666667,
282,condition1,green_purse,"
zeleni",2672,25,purse,[],38,Yes,Bosanski,Nebi bilo lose da ste napisali u vezi cega je ovo. ,BIH,ijekavica,štokavski,2,1,vjerovatno,Bosanski,Male,postAge8,"Engleski, malo njeamckog",Ne,Chrome,Windows,1440,2560,8.935966666666667,
282,condition1,black_lipstick,"
crni",3600,26,lipstick,[],38,Yes,Bosanski,Nebi bilo lose da ste napisali u vezi cega je ovo. ,BIH,ijekavica,štokavski,2,1,vjerovatno,Bosanski,Male,postAge8,"Engleski, malo njeamckog",Ne,Chrome,Windows,1440,2560,8.935966666666667,
282,condition1,green_tie,"
zeleni",2871,27,tie,[],38,Yes,Bosanski,Nebi bilo lose da ste napisali u vezi cega je ovo. ,BIH,ijekavica,štokavski,2,1,vjerovatno,Bosanski,Male,postAge8,"Engleski, malo njeamckog",Ne,Chrome,Windows,1440,2560,8.935966666666667,
282,condition1,yellow_clock,"
zuto bijeli",6312,28,clock,[],38,Yes,Bosanski,Nebi bilo lose da ste napisali u vezi cega je ovo. ,BIH,ijekavica,štokavski,2,1,vjerovatno,Bosanski,Male,postAge8,"Engleski, malo njeamckog",Ne,Chrome,Windows,1440,2560,8.935966666666667,
282,condition1,red_key,"
crveni",3200,29,key,[],38,Yes,Bosanski,Nebi bilo lose da ste napisali u vezi cega je ovo. ,BIH,ijekavica,štokavski,2,1,vjerovatno,Bosanski,Male,postAge8,"Engleski, malo njeamckog",Ne,Chrome,Windows,1440,2560,8.935966666666667,
282,condition1,green_slipper,"
zeleni",2448,30,slipper,[],38,Yes,Bosanski,Nebi bilo lose da ste napisali u vezi cega je ovo. ,BIH,ijekavica,štokavski,2,1,vjerovatno,Bosanski,Male,postAge8,"Engleski, malo njeamckog",Ne,Chrome,Windows,1440,2560,8.935966666666667,
282,condition1,red_guitar,"
crveni",2480,31,guitar,[],38,Yes,Bosanski,Nebi bilo lose da ste napisali u vezi cega je ovo. ,BIH,ijekavica,štokavski,2,1,vjerovatno,Bosanski,Male,postAge8,"Engleski, malo njeamckog",Ne,Chrome,Windows,1440,2560,8.935966666666667,
282,condition1,black_shell,"
crni",2240,32,shell,[],38,Yes,Bosanski,Nebi bilo lose da ste napisali u vezi cega je ovo. ,BIH,ijekavica,štokavski,2,1,vjerovatno,Bosanski,Male,postAge8,"Engleski, malo njeamckog",Ne,Chrome,Windows,1440,2560,8.935966666666667,
282,condition1,orange_vase,"
narandzasti",6592,33,vase,[],38,Yes,Bosanski,Nebi bilo lose da ste napisali u vezi cega je ovo. ,BIH,ijekavica,štokavski,2,1,vjerovatno,Bosanski,Male,postAge8,"Engleski, malo njeamckog",Ne,Chrome,Windows,1440,2560,8.935966666666667,
282,condition1,red_fryingpan,"
crveni",3432,34,fryingpan,[],38,Yes,Bosanski,Nebi bilo lose da ste napisali u vezi cega je ovo. ,BIH,ijekavica,štokavski,2,1,vjerovatno,Bosanski,Male,postAge8,"Engleski, malo njeamckog",Ne,Chrome,Windows,1440,2560,8.935966666666667,
282,condition1,black_duck,"
crni",2712,35,duck,[],38,Yes,Bosanski,Nebi bilo lose da ste napisali u vezi cega je ovo. ,BIH,ijekavica,štokavski,2,1,vjerovatno,Bosanski,Male,postAge8,"Engleski, malo njeamckog",Ne,Chrome,Windows,1440,2560,8.935966666666667,
282,condition1,black_sponge,"
crni",2008,36,sponge,[],38,Yes,Bosanski,Nebi bilo lose da ste napisali u vezi cega je ovo. ,BIH,ijekavica,štokavski,2,1,vjerovatno,Bosanski,Male,postAge8,"Engleski, malo njeamckog",Ne,Chrome,Windows,1440,2560,8.935966666666667,
282,condition1,green_hammer,"
zeleni",2824,37,hammer,[],38,Yes,Bosanski,Nebi bilo lose da ste napisali u vezi cega je ovo. ,BIH,ijekavica,štokavski,2,1,vjerovatno,Bosanski,Male,postAge8,"Engleski, malo njeamckog",Ne,Chrome,Windows,1440,2560,8.935966666666667,
282,condition1,blue_present,"
plavi",2104,38,present,[],38,Yes,Bosanski,Nebi bilo lose da ste napisali u vezi cega je ovo. ,BIH,ijekavica,štokavski,2,1,vjerovatno,Bosanski,Male,postAge8,"Engleski, malo njeamckog",Ne,Chrome,Windows,1440,2560,8.935966666666667,
282,condition1,blue_scarf,"
plavi",2080,39,scarf,[],38,Yes,Bosanski,Nebi bilo lose da ste napisali u vezi cega je ovo. ,BIH,ijekavica,štokavski,2,1,vjerovatno,Bosanski,Male,postAge8,"Engleski, malo njeamckog",Ne,Chrome,Windows,1440,2560,8.935966666666667,
282,condition1,blue_frame,"
plavi",1968,40,frame,[],38,Yes,Bosanski,Nebi bilo lose da ste napisali u vezi cega je ovo. ,BIH,ijekavica,štokavski,2,1,vjerovatno,Bosanski,Male,postAge8,"Engleski, malo njeamckog",Ne,Chrome,Windows,1440,2560,8.935966666666667,
282,condition1,purple_tent,"
ljubicasti",3120,41,tent,[],38,Yes,Bosanski,Nebi bilo lose da ste napisali u vezi cega je ovo. ,BIH,ijekavica,štokavski,2,1,vjerovatno,Bosanski,Male,postAge8,"Engleski, malo njeamckog",Ne,Chrome,Windows,1440,2560,8.935966666666667,
282,condition1,purple_fork,"
ljubicasti",3544,42,fork,[],38,Yes,Bosanski,Nebi bilo lose da ste napisali u vezi cega je ovo. ,BIH,ijekavica,štokavski,2,1,vjerovatno,Bosanski,Male,postAge8,"Engleski, malo njeamckog",Ne,Chrome,Windows,1440,2560,8.935966666666667,
282,condition1,black_basket,"
crni",1800,43,basket,[],38,Yes,Bosanski,Nebi bilo lose da ste napisali u vezi cega je ovo. ,BIH,ijekavica,štokavski,2,1,vjerovatno,Bosanski,Male,postAge8,"Engleski, malo njeamckog",Ne,Chrome,Windows,1440,2560,8.935966666666667,
282,condition1,red_fence,"
crveni",2824,44,fence,[],38,Yes,Bosanski,Nebi bilo lose da ste napisali u vezi cega je ovo. ,BIH,ijekavica,štokavski,2,1,vjerovatno,Bosanski,Male,postAge8,"Engleski, malo njeamckog",Ne,Chrome,Windows,1440,2560,8.935966666666667,
282,condition1,yellow_mouse,"
zuto crni",4655,45,mouse,[],38,Yes,Bosanski,Nebi bilo lose da ste napisali u vezi cega je ovo. ,BIH,ijekavica,štokavski,2,1,vjerovatno,Bosanski,Male,postAge8,"Engleski, malo njeamckog",Ne,Chrome,Windows,1440,2560,8.935966666666667,
282,condition1,yellow_shirt,"
zuti",2480,46,shirt,[],38,Yes,Bosanski,Nebi bilo lose da ste napisali u vezi cega je ovo. ,BIH,ijekavica,štokavski,2,1,vjerovatno,Bosanski,Male,postAge8,"Engleski, malo njeamckog",Ne,Chrome,Windows,1440,2560,8.935966666666667,
282,condition1,black_rope,"
crni",2240,47,rope,[],38,Yes,Bosanski,Nebi bilo lose da ste napisali u vezi cega je ovo. ,BIH,ijekavica,štokavski,2,1,vjerovatno,Bosanski,Male,postAge8,"Engleski, malo njeamckog",Ne,Chrome,Windows,1440,2560,8.935966666666667,
282,condition1,yellow_ring,"
zuti",2072,48,ring,[],38,Yes,Bosanski,Nebi bilo lose da ste napisali u vezi cega je ovo. ,BIH,ijekavica,štokavski,2,1,vjerovatno,Bosanski,Male,postAge8,"Engleski, malo njeamckog",Ne,Chrome,Windows,1440,2560,8.935966666666667,
282,condition1,green_bowl,"
zeleni",2728,49,bowl,[],38,Yes,Bosanski,Nebi bilo lose da ste napisali u vezi cega je ovo. ,BIH,ijekavica,štokavski,2,1,vjerovatno,Bosanski,Male,postAge8,"Engleski, malo njeamckog",Ne,Chrome,Windows,1440,2560,8.935966666666667,
282,condition1,purple_spoon,"
ljubicasti",3168,50,spoon,[],38,Yes,Bosanski,Nebi bilo lose da ste napisali u vezi cega je ovo. ,BIH,ijekavica,štokavski,2,1,vjerovatno,Bosanski,Male,postAge8,"Engleski, malo njeamckog",Ne,Chrome,Windows,1440,2560,8.935966666666667,
282,condition1,green_luggage,"
zeleni",2232,51,luggage,[],38,Yes,Bosanski,Nebi bilo lose da ste napisali u vezi cega je ovo. ,BIH,ijekavica,štokavski,2,1,vjerovatno,Bosanski,Male,postAge8,"Engleski, malo njeamckog",Ne,Chrome,Windows,1440,2560,8.935966666666667,
282,condition1,purple_robot,"
ljubicasti",3352,52,robot,[],38,Yes,Bosanski,Nebi bilo lose da ste napisali u vezi cega je ovo. ,BIH,ijekavica,štokavski,2,1,vjerovatno,Bosanski,Male,postAge8,"Engleski, malo njeamckog",Ne,Chrome,Windows,1440,2560,8.935966666666667,
282,condition1,green_sock,"
zeleni",1960,53,sock,[],38,Yes,Bosanski,Nebi bilo lose da ste napisali u vezi cega je ovo. ,BIH,ijekavica,štokavski,2,1,vjerovatno,Bosanski,Male,postAge8,"Engleski, malo njeamckog",Ne,Chrome,Windows,1440,2560,8.935966666666667,
282,condition1,green_camera,"
zeleni",2016,54,camera,[],38,Yes,Bosanski,Nebi bilo lose da ste napisali u vezi cega je ovo. ,BIH,ijekavica,štokavski,2,1,vjerovatno,Bosanski,Male,postAge8,"Engleski, malo njeamckog",Ne,Chrome,Windows,1440,2560,8.935966666666667,
282,condition1,blue_mug,"
plavi",1880,55,mug,[],38,Yes,Bosanski,Nebi bilo lose da ste napisali u vezi cega je ovo. ,BIH,ijekavica,štokavski,2,1,vjerovatno,Bosanski,Male,postAge8,"Engleski, malo njeamckog",Ne,Chrome,Windows,1440,2560,8.935966666666667,
282,condition1,white_mask,"
bijeli",3464,56,mask,[],38,Yes,Bosanski,Nebi bilo lose da ste napisali u vezi cega je ovo. ,BIH,ijekavica,štokavski,2,1,vjerovatno,Bosanski,Male,postAge8,"Engleski, malo njeamckog",Ne,Chrome,Windows,1440,2560,8.935966666666667,
282,condition1,purple_fish,"
ljubicasti",3736,57,fish,[],38,Yes,Bosanski,Nebi bilo lose da ste napisali u vezi cega je ovo. ,BIH,ijekavica,štokavski,2,1,vjerovatno,Bosanski,Male,postAge8,"Engleski, malo njeamckog",Ne,Chrome,Windows,1440,2560,8.935966666666667,
282,condition1,yellow_table,"
zuti",1832,58,table,[],38,Yes,Bosanski,Nebi bilo lose da ste napisali u vezi cega je ovo. ,BIH,ijekavica,štokavski,2,1,vjerovatno,Bosanski,Male,postAge8,"Engleski, malo njeamckog",Ne,Chrome,Windows,1440,2560,8.935966666666667,
282,condition1,red_binder,"
crveni",2264,59,binder,[],38,Yes,Bosanski,Nebi bilo lose da ste napisali u vezi cega je ovo. ,BIH,ijekavica,štokavski,2,1,vjerovatno,Bosanski,Male,postAge8,"Engleski, malo njeamckog",Ne,Chrome,Windows,1440,2560,8.935966666666667,
282,condition1,purple_tv,"
ljubicasti",3088,60,tv,[],38,Yes,Bosanski,Nebi bilo lose da ste napisali u vezi cega je ovo. ,BIH,ijekavica,štokavski,2,1,vjerovatno,Bosanski,Male,postAge8,"Engleski, malo njeamckog",Ne,Chrome,Windows,1440,2560,8.935966666666667,
282,condition1,yellow_cushion,"
zuti",2520,61,cushion,[],38,Yes,Bosanski,Nebi bilo lose da ste napisali u vezi cega je ovo. ,BIH,ijekavica,štokavski,2,1,vjerovatno,Bosanski,Male,postAge8,"Engleski, malo njeamckog",Ne,Chrome,Windows,1440,2560,8.935966666666667,
282,condition1,blue_bracelet,plavi,5032,62,bracelet,[],38,Yes,Bosanski,Nebi bilo lose da ste napisali u vezi cega je ovo. ,BIH,ijekavica,štokavski,2,1,vjerovatno,Bosanski,Male,postAge8,"Engleski, malo njeamckog",Ne,Chrome,Windows,1440,2560,8.935966666666667,
282,condition1,yellow_bucket,"
zuti",1808,63,bucket,[],38,Yes,Bosanski,Nebi bilo lose da ste napisali u vezi cega je ovo. ,BIH,ijekavica,štokavski,2,1,vjerovatno,Bosanski,Male,postAge8,"Engleski, malo njeamckog",Ne,Chrome,Windows,1440,2560,8.935966666666667,
282,condition1,white_comb,"
bijeli",2264,64,comb,[],38,Yes,Bosanski,Nebi bilo lose da ste napisali u vezi cega je ovo. ,BIH,ijekavica,štokavski,2,1,vjerovatno,Bosanski,Male,postAge8,"Engleski, malo njeamckog",Ne,Chrome,Windows,1440,2560,8.935966666666667,
282,condition1,green_die,"
zeleni",2256,65,die,[],38,Yes,Bosanski,Nebi bilo lose da ste napisali u vezi cega je ovo. ,BIH,ijekavica,štokavski,2,1,vjerovatno,Bosanski,Male,postAge8,"Engleski, malo njeamckog",Ne,Chrome,Windows,1440,2560,8.935966666666667,
282,condition1,orange_plate,"
narandzasti",4152,66,plate,[],38,Yes,Bosanski,Nebi bilo lose da ste napisali u vezi cega je ovo. ,BIH,ijekavica,štokavski,2,1,vjerovatno,Bosanski,Male,postAge8,"Engleski, malo njeamckog",Ne,Chrome,Windows,1440,2560,8.935966666666667,
282,condition1,orange_truck,"
narandzasti",4009,67,truck,[],38,Yes,Bosanski,Nebi bilo lose da ste napisali u vezi cega je ovo. ,BIH,ijekavica,štokavski,2,1,vjerovatno,Bosanski,Male,postAge8,"Engleski, malo njeamckog",Ne,Chrome,Windows,1440,2560,8.935966666666667,
282,condition1,green_radio,"
zeleni",2144,68,radio,[],38,Yes,Bosanski,Nebi bilo lose da ste napisali u vezi cega je ovo. ,BIH,ijekavica,štokavski,2,1,vjerovatno,Bosanski,Male,postAge8,"Engleski, malo njeamckog",Ne,Chrome,Windows,1440,2560,8.935966666666667,
282,condition1,blue_ruler,"
plavi",1760,69,ruler,[],38,Yes,Bosanski,Nebi bilo lose da ste napisali u vezi cega je ovo. ,BIH,ijekavica,štokavski,2,1,vjerovatno,Bosanski,Male,postAge8,"Engleski, malo njeamckog",Ne,Chrome,Windows,1440,2560,8.935966666666667,
282,condition1,green_ladle,"
zeleni",2120,70,ladle,[],38,Yes,Bosanski,Nebi bilo lose da ste napisali u vezi cega je ovo. ,BIH,ijekavica,štokavski,2,1,vjerovatno,Bosanski,Male,postAge8,"Engleski, malo njeamckog",Ne,Chrome,Windows,1440,2560,8.935966666666667,
282,condition1,red_coathanger,"
crveni",2152,71,coathanger,[],38,Yes,Bosanski,Nebi bilo lose da ste napisali u vezi cega je ovo. ,BIH,ijekavica,štokavski,2,1,vjerovatno,Bosanski,Male,postAge8,"Engleski, malo njeamckog",Ne,Chrome,Windows,1440,2560,8.935966666666667,
282,condition1,white_sword,"
bijeli",2120,72,sword,[],38,Yes,Bosanski,Nebi bilo lose da ste napisali u vezi cega je ovo. ,BIH,ijekavica,štokavski,2,1,vjerovatno,Bosanski,Male,postAge8,"Engleski, malo njeamckog",Ne,Chrome,Windows,1440,2560,8.935966666666667,
282,condition1,purple_helicopter,"
ljubicasti",3280,73,helicopter,[],38,Yes,Bosanski,Nebi bilo lose da ste napisali u vezi cega je ovo. ,BIH,ijekavica,štokavski,2,1,vjerovatno,Bosanski,Male,postAge8,"Engleski, malo njeamckog",Ne,Chrome,Windows,1440,2560,8.935966666666667,
282,condition1,white_magnifyingglass,"
bijeli",2632,74,magnifyingglass,[],38,Yes,Bosanski,Nebi bilo lose da ste napisali u vezi cega je ovo. ,BIH,ijekavica,štokavski,2,1,vjerovatno,Bosanski,Male,postAge8,"Engleski, malo njeamckog",Ne,Chrome,Windows,1440,2560,8.935966666666667,
282,condition1,blue_bed,"
plavi",2264,75,bed,[],38,Yes,Bosanski,Nebi bilo lose da ste napisali u vezi cega je ovo. ,BIH,ijekavica,štokavski,2,1,vjerovatno,Bosanski,Male,postAge8,"Engleski, malo njeamckog",Ne,Chrome,Windows,1440,2560,8.935966666666667,
282,condition1,white_wallet,"
bijeli",5808,76,wallet,[],38,Yes,Bosanski,Nebi bilo lose da ste napisali u vezi cega je ovo. ,BIH,ijekavica,štokavski,2,1,vjerovatno,Bosanski,Male,postAge8,"Engleski, malo njeamckog",Ne,Chrome,Windows,1440,2560,8.935966666666667,
282,condition1,purple_piano,"
ljubicasti",3055,77,piano,[],38,Yes,Bosanski,Nebi bilo lose da ste napisali u vezi cega je ovo. ,BIH,ijekavica,štokavski,2,1,vjerovatno,Bosanski,Male,postAge8,"Engleski, malo njeamckog",Ne,Chrome,Windows,1440,2560,8.935966666666667,
282,condition1,purple_bandaid,"
ljubicasti",2881,78,bandaid,[],38,Yes,Bosanski,Nebi bilo lose da ste napisali u vezi cega je ovo. ,BIH,ijekavica,štokavski,2,1,vjerovatno,Bosanski,Male,postAge8,"Engleski, malo njeamckog",Ne,Chrome,Windows,1440,2560,8.935966666666667,
282,condition1,blue_stapler,"
plavi",1856,79,stapler,[],38,Yes,Bosanski,Nebi bilo lose da ste napisali u vezi cega je ovo. ,BIH,ijekavica,štokavski,2,1,vjerovatno,Bosanski,Male,postAge8,"Engleski, malo njeamckog",Ne,Chrome,Windows,1440,2560,8.935966666666667,
282,condition1,purple_ribbon,"
ljubicsti",3192,80,ribbon,[],38,Yes,Bosanski,Nebi bilo lose da ste napisali u vezi cega je ovo. ,BIH,ijekavica,štokavski,2,1,vjerovatno,Bosanski,Male,postAge8,"Engleski, malo njeamckog",Ne,Chrome,Windows,1440,2560,8.935966666666667,
282,condition1,yellow_door,"
zuti",2592,81,door,[],38,Yes,Bosanski,Nebi bilo lose da ste napisali u vezi cega je ovo. ,BIH,ijekavica,štokavski,2,1,vjerovatno,Bosanski,Male,postAge8,"Engleski, malo njeamckog",Ne,Chrome,Windows,1440,2560,8.935966666666667,
282,condition1,red_napkin,"
crveni",2288,82,napkin,[],38,Yes,Bosanski,Nebi bilo lose da ste napisali u vezi cega je ovo. ,BIH,ijekavica,štokavski,2,1,vjerovatno,Bosanski,Male,postAge8,"Engleski, malo njeamckog",Ne,Chrome,Windows,1440,2560,8.935966666666667,
282,condition1,black_airplane,"
crni",2872,83,airplane,[],38,Yes,Bosanski,Nebi bilo lose da ste napisali u vezi cega je ovo. ,BIH,ijekavica,štokavski,2,1,vjerovatno,Bosanski,Male,postAge8,"Engleski, malo njeamckog",Ne,Chrome,Windows,1440,2560,8.935966666666667,
282,condition1,yellow_shoe,"
zuti",1920,84,shoe,[],38,Yes,Bosanski,Nebi bilo lose da ste napisali u vezi cega je ovo. ,BIH,ijekavica,štokavski,2,1,vjerovatno,Bosanski,Male,postAge8,"Engleski, malo njeamckog",Ne,Chrome,Windows,1440,2560,8.935966666666667,
282,condition1,red_cap,"
crveni",2208,85,cap,[],38,Yes,Bosanski,Nebi bilo lose da ste napisali u vezi cega je ovo. ,BIH,ijekavica,štokavski,2,1,vjerovatno,Bosanski,Male,postAge8,"Engleski, malo njeamckog",Ne,Chrome,Windows,1440,2560,8.935966666666667,
282,condition1,orange_drum,"
oker",7080,86,drum,[],38,Yes,Bosanski,Nebi bilo lose da ste napisali u vezi cega je ovo. ,BIH,ijekavica,štokavski,2,1,vjerovatno,Bosanski,Male,postAge8,"Engleski, malo njeamckog",Ne,Chrome,Windows,1440,2560,8.935966666666667,
282,condition1,blue_phone,"
plavi",2048,87,phone,[],38,Yes,Bosanski,Nebi bilo lose da ste napisali u vezi cega je ovo. ,BIH,ijekavica,štokavski,2,1,vjerovatno,Bosanski,Male,postAge8,"Engleski, malo njeamckog",Ne,Chrome,Windows,1440,2560,8.935966666666667,
282,condition1,orange_microscope,"
narandzasti",5624,88,microscope,[],38,Yes,Bosanski,Nebi bilo lose da ste napisali u vezi cega je ovo. ,BIH,ijekavica,štokavski,2,1,vjerovatno,Bosanski,Male,postAge8,"Engleski, malo njeamckog",Ne,Chrome,Windows,1440,2560,8.935966666666667,
282,condition1,black_bench,"
crni",1960,89,bench,[],38,Yes,Bosanski,Nebi bilo lose da ste napisali u vezi cega je ovo. ,BIH,ijekavica,štokavski,2,1,vjerovatno,Bosanski,Male,postAge8,"Engleski, malo njeamckog",Ne,Chrome,Windows,1440,2560,8.935966666666667,
282,condition1,yellow_belt,"
zuti",2968,90,belt,[],38,Yes,Bosanski,Nebi bilo lose da ste napisali u vezi cega je ovo. ,BIH,ijekavica,štokavski,2,1,vjerovatno,Bosanski,Male,postAge8,"Engleski, malo njeamckog",Ne,Chrome,Windows,1440,2560,8.935966666666667,
282,condition1,green_remote,"
zeleni",2408,91,remote,[],38,Yes,Bosanski,Nebi bilo lose da ste napisali u vezi cega je ovo. ,BIH,ijekavica,štokavski,2,1,vjerovatno,Bosanski,Male,postAge8,"Engleski, malo njeamckog",Ne,Chrome,Windows,1440,2560,8.935966666666667,
282,condition1,purple_cake,"
ljubicsti",4496,92,cake,[],38,Yes,Bosanski,Nebi bilo lose da ste napisali u vezi cega je ovo. ,BIH,ijekavica,štokavski,2,1,vjerovatno,Bosanski,Male,postAge8,"Engleski, malo njeamckog",Ne,Chrome,Windows,1440,2560,8.935966666666667,
282,condition1,blue_switch,"
plavi",2664,93,switch,[],38,Yes,Bosanski,Nebi bilo lose da ste napisali u vezi cega je ovo. ,BIH,ijekavica,štokavski,2,1,vjerovatno,Bosanski,Male,postAge8,"Engleski, malo njeamckog",Ne,Chrome,Windows,1440,2560,8.935966666666667,
282,condition1,red_rug,"
crveni",2888,94,rug,[],38,Yes,Bosanski,Nebi bilo lose da ste napisali u vezi cega je ovo. ,BIH,ijekavica,štokavski,2,1,vjerovatno,Bosanski,Male,postAge8,"Engleski, malo njeamckog",Ne,Chrome,Windows,1440,2560,8.935966666666667,
282,condition1,black_glove,"
crni",2136,95,glove,[],38,Yes,Bosanski,Nebi bilo lose da ste napisali u vezi cega je ovo. ,BIH,ijekavica,štokavski,2,1,vjerovatno,Bosanski,Male,postAge8,"Engleski, malo njeamckog",Ne,Chrome,Windows,1440,2560,8.935966666666667,
282,condition1,black_bonbon,"
crni",2432,96,bonbon,[],38,Yes,Bosanski,Nebi bilo lose da ste napisali u vezi cega je ovo. ,BIH,ijekavica,štokavski,2,1,vjerovatno,Bosanski,Male,postAge8,"Engleski, malo njeamckog",Ne,Chrome,Windows,1440,2560,8.935966666666667,
282,condition1,blue_notebook,"
plavi",2480,97,notebook,[],38,Yes,Bosanski,Nebi bilo lose da ste napisali u vezi cega je ovo. ,BIH,ijekavica,štokavski,2,1,vjerovatno,Bosanski,Male,postAge8,"Engleski, malo njeamckog",Ne,Chrome,Windows,1440,2560,8.935966666666667,
282,condition1,green_boot,"
zeleni",2776,98,boot,[],38,Yes,Bosanski,Nebi bilo lose da ste napisali u vezi cega je ovo. ,BIH,ijekavica,štokavski,2,1,vjerovatno,Bosanski,Male,postAge8,"Engleski, malo njeamckog",Ne,Chrome,Windows,1440,2560,8.935966666666667,
282,condition1,yellow_chair,"
zuti",1951,99,chair,[],38,Yes,Bosanski,Nebi bilo lose da ste napisali u vezi cega je ovo. ,BIH,ijekavica,štokavski,2,1,vjerovatno,Bosanski,Male,postAge8,"Engleski, malo njeamckog",Ne,Chrome,Windows,1440,2560,8.935966666666667,
282,condition1,green_whistle,"
zeleni",3344,100,whistle,[],38,Yes,Bosanski,Nebi bilo lose da ste napisali u vezi cega je ovo. ,BIH,ijekavica,štokavski,2,1,vjerovatno,Bosanski,Male,postAge8,"Engleski, malo njeamckog",Ne,Chrome,Windows,1440,2560,8.935966666666667,
282,condition1,blue_yarn,"
plavi",2040,101,yarn,[],38,Yes,Bosanski,Nebi bilo lose da ste napisali u vezi cega je ovo. ,BIH,ijekavica,štokavski,2,1,vjerovatno,Bosanski,Male,postAge8,"Engleski, malo njeamckog",Ne,Chrome,Windows,1440,2560,8.935966666666667,
282,condition1,white_billiardball,"
bijeli",2856,102,billiardball,[],38,Yes,Bosanski,Nebi bilo lose da ste napisali u vezi cega je ovo. ,BIH,ijekavica,štokavski,2,1,vjerovatno,Bosanski,Male,postAge8,"Engleski, malo njeamckog",Ne,Chrome,Windows,1440,2560,8.935966666666667,
282,condition1,yellow_book,"
zuti",2040,103,book,[],38,Yes,Bosanski,Nebi bilo lose da ste napisali u vezi cega je ovo. ,BIH,ijekavica,štokavski,2,1,vjerovatno,Bosanski,Male,postAge8,"Engleski, malo njeamckog",Ne,Chrome,Windows,1440,2560,8.935966666666667,
282,condition1,purple_necklace,"
ljubicasti",3368,104,necklace,[],38,Yes,Bosanski,Nebi bilo lose da ste napisali u vezi cega je ovo. ,BIH,ijekavica,štokavski,2,1,vjerovatno,Bosanski,Male,postAge8,"Engleski, malo njeamckog",Ne,Chrome,Windows,1440,2560,8.935966666666667,
282,condition1,green_screwdriver,"
zeleni",2848,105,screwdriver,[],38,Yes,Bosanski,Nebi bilo lose da ste napisali u vezi cega je ovo. ,BIH,ijekavica,štokavski,2,1,vjerovatno,Bosanski,Male,postAge8,"Engleski, malo njeamckog",Ne,Chrome,Windows,1440,2560,8.935966666666667,
282,condition1,orange_dresser,"
narandzasti",4056,106,dresser,[],38,Yes,Bosanski,Nebi bilo lose da ste napisali u vezi cega je ovo. ,BIH,ijekavica,štokavski,2,1,vjerovatno,Bosanski,Male,postAge8,"Engleski, malo njeamckog",Ne,Chrome,Windows,1440,2560,8.935966666666667,
226,condition1,yellow_cap,žuta,3259,2,cap,[],20,No,slovenski,,SI,ekavica,kajkavski,2,2,Da.,slovenski,Female,preAndPostAge8,"bosanski, engleski",Ne.,Chrome,Windows,720,1280,7.312383333333333,
226,condition1,white_billiardball,"
bjela",1963,3,billiardball,[],20,No,slovenski,,SI,ekavica,kajkavski,2,2,Da.,slovenski,Female,preAndPostAge8,"bosanski, engleski",Ne.,Chrome,Windows,720,1280,7.312383333333333,
226,condition1,blue_cushion,"
plava",1910,4,cushion,[],20,No,slovenski,,SI,ekavica,kajkavski,2,2,Da.,slovenski,Female,preAndPostAge8,"bosanski, engleski",Ne.,Chrome,Windows,720,1280,7.312383333333333,
226,condition1,purple_lock,"
ljubičasta",3457,5,lock,[],20,No,slovenski,,SI,ekavica,kajkavski,2,2,Da.,slovenski,Female,preAndPostAge8,"bosanski, engleski",Ne.,Chrome,Windows,720,1280,7.312383333333333,
226,condition1,purple_airplane,"
ljubičasta",17510,6,airplane,[],20,No,slovenski,,SI,ekavica,kajkavski,2,2,Da.,slovenski,Female,preAndPostAge8,"bosanski, engleski",Ne.,Chrome,Windows,720,1280,7.312383333333333,
226,condition1,orange_ladle,"
narandžasta",37464,7,ladle,[],20,No,slovenski,,SI,ekavica,kajkavski,2,2,Da.,slovenski,Female,preAndPostAge8,"bosanski, engleski",Ne.,Chrome,Windows,720,1280,7.312383333333333,
226,condition1,red_ornament,"
crvena",4360,8,ornament,[],20,No,slovenski,,SI,ekavica,kajkavski,2,2,Da.,slovenski,Female,preAndPostAge8,"bosanski, engleski",Ne.,Chrome,Windows,720,1280,7.312383333333333,
226,condition1,blue_guitar,"
plava",1873,9,guitar,[],20,No,slovenski,,SI,ekavica,kajkavski,2,2,Da.,slovenski,Female,preAndPostAge8,"bosanski, engleski",Ne.,Chrome,Windows,720,1280,7.312383333333333,
226,condition1,yellow_phone,"
žuta",2854,10,phone,[],20,No,slovenski,,SI,ekavica,kajkavski,2,2,Da.,slovenski,Female,preAndPostAge8,"bosanski, engleski",Ne.,Chrome,Windows,720,1280,7.312383333333333,
226,condition1,purple_plate,"
ljubičasta",3905,11,plate,[],20,No,slovenski,,SI,ekavica,kajkavski,2,2,Da.,slovenski,Female,preAndPostAge8,"bosanski, engleski",Ne.,Chrome,Windows,720,1280,7.312383333333333,
226,condition1,blue_table,"
plava",1932,12,table,[],20,No,slovenski,,SI,ekavica,kajkavski,2,2,Da.,slovenski,Female,preAndPostAge8,"bosanski, engleski",Ne.,Chrome,Windows,720,1280,7.312383333333333,
226,condition1,orange_lipstick,"
narandžasta",3915,13,lipstick,[],20,No,slovenski,,SI,ekavica,kajkavski,2,2,Da.,slovenski,Female,preAndPostAge8,"bosanski, engleski",Ne.,Chrome,Windows,720,1280,7.312383333333333,
226,condition1,black_binoculars,"
crna",2762,14,binoculars,[],20,No,slovenski,,SI,ekavica,kajkavski,2,2,Da.,slovenski,Female,preAndPostAge8,"bosanski, engleski",Ne.,Chrome,Windows,720,1280,7.312383333333333,
226,condition1,orange_spoon,"
narandžasta",7000,15,spoon,[],20,No,slovenski,,SI,ekavica,kajkavski,2,2,Da.,slovenski,Female,preAndPostAge8,"bosanski, engleski",Ne.,Chrome,Windows,720,1280,7.312383333333333,
226,condition1,white_switch,"
bjela",3560,16,switch,[],20,No,slovenski,,SI,ekavica,kajkavski,2,2,Da.,slovenski,Female,preAndPostAge8,"bosanski, engleski",Ne.,Chrome,Windows,720,1280,7.312383333333333,
226,condition1,purple_bonbon,"
ljubičasta",3307,17,bonbon,[],20,No,slovenski,,SI,ekavica,kajkavski,2,2,Da.,slovenski,Female,preAndPostAge8,"bosanski, engleski",Ne.,Chrome,Windows,720,1280,7.312383333333333,
226,condition1,white_napkin,"
bjela",1704,18,napkin,[],20,No,slovenski,,SI,ekavica,kajkavski,2,2,Da.,slovenski,Female,preAndPostAge8,"bosanski, engleski",Ne.,Chrome,Windows,720,1280,7.312383333333333,
226,condition1,yellow_armchair,"
žuta",3549,19,armchair,[],20,No,slovenski,,SI,ekavica,kajkavski,2,2,Da.,slovenski,Female,preAndPostAge8,"bosanski, engleski",Ne.,Chrome,Windows,720,1280,7.312383333333333,
226,condition1,orange_die,"
smeđa",17236,20,die,[],20,No,slovenski,,SI,ekavica,kajkavski,2,2,Da.,slovenski,Female,preAndPostAge8,"bosanski, engleski",Ne.,Chrome,Windows,720,1280,7.312383333333333,
226,condition1,red_flower,"
crvena",2129,21,flower,[],20,No,slovenski,,SI,ekavica,kajkavski,2,2,Da.,slovenski,Female,preAndPostAge8,"bosanski, engleski",Ne.,Chrome,Windows,720,1280,7.312383333333333,
226,condition1,red_sword,"
crvena",2058,22,sword,[],20,No,slovenski,,SI,ekavica,kajkavski,2,2,Da.,slovenski,Female,preAndPostAge8,"bosanski, engleski",Ne.,Chrome,Windows,720,1280,7.312383333333333,
226,condition1,green_robot,"
zelena",4355,23,robot,[],20,No,slovenski,,SI,ekavica,kajkavski,2,2,Da.,slovenski,Female,preAndPostAge8,"bosanski, engleski",Ne.,Chrome,Windows,720,1280,7.312383333333333,
226,condition1,blue_door,"
plava",3401,24,door,[],20,No,slovenski,,SI,ekavica,kajkavski,2,2,Da.,slovenski,Female,preAndPostAge8,"bosanski, engleski",Ne.,Chrome,Windows,720,1280,7.312383333333333,
226,condition1,blue_scarf,"
plava",2113,25,scarf,[],20,No,slovenski,,SI,ekavica,kajkavski,2,2,Da.,slovenski,Female,preAndPostAge8,"bosanski, engleski",Ne.,Chrome,Windows,720,1280,7.312383333333333,
226,condition1,yellow_key,"
zlatna",6723,26,key,[],20,No,slovenski,,SI,ekavica,kajkavski,2,2,Da.,slovenski,Female,preAndPostAge8,"bosanski, engleski",Ne.,Chrome,Windows,720,1280,7.312383333333333,
226,condition1,white_yarn,"
bjela",1737,27,yarn,[],20,No,slovenski,,SI,ekavica,kajkavski,2,2,Da.,slovenski,Female,preAndPostAge8,"bosanski, engleski",Ne.,Chrome,Windows,720,1280,7.312383333333333,
226,condition1,red_lamp,"
crvena",2131,28,lamp,[],20,No,slovenski,,SI,ekavica,kajkavski,2,2,Da.,slovenski,Female,preAndPostAge8,"bosanski, engleski",Ne.,Chrome,Windows,720,1280,7.312383333333333,
226,condition1,blue_rug,"
plava",1636,29,rug,[],20,No,slovenski,,SI,ekavica,kajkavski,2,2,Da.,slovenski,Female,preAndPostAge8,"bosanski, engleski",Ne.,Chrome,Windows,720,1280,7.312383333333333,
226,condition1,black_necklace,"
crna",2416,30,necklace,[],20,No,slovenski,,SI,ekavica,kajkavski,2,2,Da.,slovenski,Female,preAndPostAge8,"bosanski, engleski",Ne.,Chrome,Windows,720,1280,7.312383333333333,
226,condition1,yellow_candle,"
žuta",2103,31,candle,[],20,No,slovenski,,SI,ekavica,kajkavski,2,2,Da.,slovenski,Female,preAndPostAge8,"bosanski, engleski",Ne.,Chrome,Windows,720,1280,7.312383333333333,
226,condition1,blue_fence,"
plava",1865,32,fence,[],20,No,slovenski,,SI,ekavica,kajkavski,2,2,Da.,slovenski,Female,preAndPostAge8,"bosanski, engleski",Ne.,Chrome,Windows,720,1280,7.312383333333333,
226,condition1,purple_tent,"
ljubičasta",3866,33,tent,[],20,No,slovenski,,SI,ekavica,kajkavski,2,2,Da.,slovenski,Female,preAndPostAge8,"bosanski, engleski",Ne.,Chrome,Windows,720,1280,7.312383333333333,
226,condition1,red_notebook,"
crvena",1964,34,notebook,[],20,No,slovenski,,SI,ekavica,kajkavski,2,2,Da.,slovenski,Female,preAndPostAge8,"bosanski, engleski",Ne.,Chrome,Windows,720,1280,7.312383333333333,
226,condition1,black_rope,"
crna",2141,35,rope,[],20,No,slovenski,,SI,ekavica,kajkavski,2,2,Da.,slovenski,Female,preAndPostAge8,"bosanski, engleski",Ne.,Chrome,Windows,720,1280,7.312383333333333,
226,condition1,orange_basket,"
narandžasta",4597,36,basket,[],20,No,slovenski,,SI,ekavica,kajkavski,2,2,Da.,slovenski,Female,preAndPostAge8,"bosanski, engleski",Ne.,Chrome,Windows,720,1280,7.312383333333333,
226,condition1,black_bandaid,"
crna",2715,37,bandaid,[],20,No,slovenski,,SI,ekavica,kajkavski,2,2,Da.,slovenski,Female,preAndPostAge8,"bosanski, engleski",Ne.,Chrome,Windows,720,1280,7.312383333333333,
226,condition1,orange_calendar,"
narandžasta",3783,38,calendar,[],20,No,slovenski,,SI,ekavica,kajkavski,2,2,Da.,slovenski,Female,preAndPostAge8,"bosanski, engleski",Ne.,Chrome,Windows,720,1280,7.312383333333333,
226,condition1,white_clock,"
bjela",2130,39,clock,[],20,No,slovenski,,SI,ekavica,kajkavski,2,2,Da.,slovenski,Female,preAndPostAge8,"bosanski, engleski",Ne.,Chrome,Windows,720,1280,7.312383333333333,
226,condition1,green_boot,"
zelena",2117,40,boot,[],20,No,slovenski,,SI,ekavica,kajkavski,2,2,Da.,slovenski,Female,preAndPostAge8,"bosanski, engleski",Ne.,Chrome,Windows,720,1280,7.312383333333333,
226,condition1,orange_radio,"
narandžasta",4781,41,radio,[],20,No,slovenski,,SI,ekavica,kajkavski,2,2,Da.,slovenski,Female,preAndPostAge8,"bosanski, engleski",Ne.,Chrome,Windows,720,1280,7.312383333333333,
226,condition1,yellow_coathanger,"
žuta",2130,42,coathanger,[],20,No,slovenski,,SI,ekavica,kajkavski,2,2,Da.,slovenski,Female,preAndPostAge8,"bosanski, engleski",Ne.,Chrome,Windows,720,1280,7.312383333333333,
226,condition1,purple_hammer,"
ljubičasta",2976,43,hammer,[],20,No,slovenski,,SI,ekavica,kajkavski,2,2,Da.,slovenski,Female,preAndPostAge8,"bosanski, engleski",Ne.,Chrome,Windows,720,1280,7.312383333333333,
226,condition1,black_duck,"
crna",1984,44,duck,[],20,No,slovenski,,SI,ekavica,kajkavski,2,2,Da.,slovenski,Female,preAndPostAge8,"bosanski, engleski",Ne.,Chrome,Windows,720,1280,7.312383333333333,
226,condition1,orange_helicopter,"
narandžasta",4596,45,helicopter,[],20,No,slovenski,,SI,ekavica,kajkavski,2,2,Da.,slovenski,Female,preAndPostAge8,"bosanski, engleski",Ne.,Chrome,Windows,720,1280,7.312383333333333,
226,condition1,green_camera,"
zelena",1925,46,camera,[],20,No,slovenski,,SI,ekavica,kajkavski,2,2,Da.,slovenski,Female,preAndPostAge8,"bosanski, engleski",Ne.,Chrome,Windows,720,1280,7.312383333333333,
226,condition1,white_mask,"
bjela",3159,47,mask,[],20,No,slovenski,,SI,ekavica,kajkavski,2,2,Da.,slovenski,Female,preAndPostAge8,"bosanski, engleski",Ne.,Chrome,Windows,720,1280,7.312383333333333,
226,condition1,white_bike,"
bjela",2389,48,bike,[],20,No,slovenski,,SI,ekavica,kajkavski,2,2,Da.,slovenski,Female,preAndPostAge8,"bosanski, engleski",Ne.,Chrome,Windows,720,1280,7.312383333333333,
226,condition1,purple_purse,"
ljubičasta",3005,49,purse,[],20,No,slovenski,,SI,ekavica,kajkavski,2,2,Da.,slovenski,Female,preAndPostAge8,"bosanski, engleski",Ne.,Chrome,Windows,720,1280,7.312383333333333,
226,condition1,red_bed,"
crvena",2202,50,bed,[],20,No,slovenski,,SI,ekavica,kajkavski,2,2,Da.,slovenski,Female,preAndPostAge8,"bosanski, engleski",Ne.,Chrome,Windows,720,1280,7.312383333333333,
226,condition1,white_frame,"
bjela",1649,51,frame,[],20,No,slovenski,,SI,ekavica,kajkavski,2,2,Da.,slovenski,Female,preAndPostAge8,"bosanski, engleski",Ne.,Chrome,Windows,720,1280,7.312383333333333,
226,condition1,orange_razor,"
smeđa",4941,52,razor,[],20,No,slovenski,,SI,ekavica,kajkavski,2,2,Da.,slovenski,Female,preAndPostAge8,"bosanski, engleski",Ne.,Chrome,Windows,720,1280,7.312383333333333,
226,condition1,yellow_mouse,"
žuta",2011,53,mouse,[],20,No,slovenski,,SI,ekavica,kajkavski,2,2,Da.,slovenski,Female,preAndPostAge8,"bosanski, engleski",Ne.,Chrome,Windows,720,1280,7.312383333333333,
226,condition1,red_chair,"
crvena",2950,54,chair,[],20,No,slovenski,,SI,ekavica,kajkavski,2,2,Da.,slovenski,Female,preAndPostAge8,"bosanski, engleski",Ne.,Chrome,Windows,720,1280,7.312383333333333,
226,condition1,green_vase,"
zelena",1948,55,vase,[],20,No,slovenski,,SI,ekavica,kajkavski,2,2,Da.,slovenski,Female,preAndPostAge8,"bosanski, engleski",Ne.,Chrome,Windows,720,1280,7.312383333333333,
226,condition1,green_shell,"
zelena",1731,56,shell,[],20,No,slovenski,,SI,ekavica,kajkavski,2,2,Da.,slovenski,Female,preAndPostAge8,"bosanski, engleski",Ne.,Chrome,Windows,720,1280,7.312383333333333,
226,condition1,red_crown,"
crvena",5554,57,crown,[],20,No,slovenski,,SI,ekavica,kajkavski,2,2,Da.,slovenski,Female,preAndPostAge8,"bosanski, engleski",Ne.,Chrome,Windows,720,1280,7.312383333333333,
226,condition1,green_cake,"
zelena",1941,58,cake,[],20,No,slovenski,,SI,ekavica,kajkavski,2,2,Da.,slovenski,Female,preAndPostAge8,"bosanski, engleski",Ne.,Chrome,Windows,720,1280,7.312383333333333,
226,condition1,yellow_dustpan,"
žuta",2038,59,dustpan,[],20,No,slovenski,,SI,ekavica,kajkavski,2,2,Da.,slovenski,Female,preAndPostAge8,"bosanski, engleski",Ne.,Chrome,Windows,720,1280,7.312383333333333,
226,condition1,purple_piano,"
ljubičasta",2738,60,piano,[],20,No,slovenski,,SI,ekavica,kajkavski,2,2,Da.,slovenski,Female,preAndPostAge8,"bosanski, engleski",Ne.,Chrome,Windows,720,1280,7.312383333333333,
226,condition1,blue_fryingpan,"
plava",3024,61,fryingpan,[],20,No,slovenski,,SI,ekavica,kajkavski,2,2,Da.,slovenski,Female,preAndPostAge8,"bosanski, engleski",Ne.,Chrome,Windows,720,1280,7.312383333333333,
226,condition1,blue_bracelet,"
plava",1703,62,bracelet,[],20,No,slovenski,,SI,ekavica,kajkavski,2,2,Da.,slovenski,Female,preAndPostAge8,"bosanski, engleski",Ne.,Chrome,Windows,720,1280,7.312383333333333,
226,condition1,purple_bench,"
ljubičasta",3129,63,bench,[],20,No,slovenski,,SI,ekavica,kajkavski,2,2,Da.,slovenski,Female,preAndPostAge8,"bosanski, engleski",Ne.,Chrome,Windows,720,1280,7.312383333333333,
226,condition1,green_box,"
zelena",1737,64,box,[],20,No,slovenski,,SI,ekavica,kajkavski,2,2,Da.,slovenski,Female,preAndPostAge8,"bosanski, engleski",Ne.,Chrome,Windows,720,1280,7.312383333333333,
226,condition1,yellow_pencil,"
žuta",2388,65,pencil,[],20,No,slovenski,,SI,ekavica,kajkavski,2,2,Da.,slovenski,Female,preAndPostAge8,"bosanski, engleski",Ne.,Chrome,Windows,720,1280,7.312383333333333,
226,condition1,green_drum,"
zelena",3017,66,drum,[],20,No,slovenski,,SI,ekavica,kajkavski,2,2,Da.,slovenski,Female,preAndPostAge8,"bosanski, engleski",Ne.,Chrome,Windows,720,1280,7.312383333333333,
226,condition1,red_stapler,"
crven<",2171,67,stapler,[],20,No,slovenski,,SI,ekavica,kajkavski,2,2,Da.,slovenski,Female,preAndPostAge8,"bosanski, engleski",Ne.,Chrome,Windows,720,1280,7.312383333333333,
226,condition1,red_shoe,"
crvena",3164,68,shoe,[],20,No,slovenski,,SI,ekavica,kajkavski,2,2,Da.,slovenski,Female,preAndPostAge8,"bosanski, engleski",Ne.,Chrome,Windows,720,1280,7.312383333333333,
226,condition1,green_dresser,"
zelena",1945,69,dresser,[],20,No,slovenski,,SI,ekavica,kajkavski,2,2,Da.,slovenski,Female,preAndPostAge8,"bosanski, engleski",Ne.,Chrome,Windows,720,1280,7.312383333333333,
226,condition1,green_shield,"
zelena",3232,70,shield,[],20,No,slovenski,,SI,ekavica,kajkavski,2,2,Da.,slovenski,Female,preAndPostAge8,"bosanski, engleski",Ne.,Chrome,Windows,720,1280,7.312383333333333,
226,condition1,white_comb,"
bjela",2197,71,comb,[],20,No,slovenski,,SI,ekavica,kajkavski,2,2,Da.,slovenski,Female,preAndPostAge8,"bosanski, engleski",Ne.,Chrome,Windows,720,1280,7.312383333333333,
226,condition1,white_calculator,"
bjela",1649,72,calculator,[],20,No,slovenski,,SI,ekavica,kajkavski,2,2,Da.,slovenski,Female,preAndPostAge8,"bosanski, engleski",Ne.,Chrome,Windows,720,1280,7.312383333333333,
226,condition1,orange_umbrella,"
narandžasta",4162,73,umbrella,[],20,No,slovenski,,SI,ekavica,kajkavski,2,2,Da.,slovenski,Female,preAndPostAge8,"bosanski, engleski",Ne.,Chrome,Windows,720,1280,7.312383333333333,
226,condition1,white_wallet,"
bjela",1842,74,wallet,[],20,No,slovenski,,SI,ekavica,kajkavski,2,2,Da.,slovenski,Female,preAndPostAge8,"bosanski, engleski",Ne.,Chrome,Windows,720,1280,7.312383333333333,
226,condition1,green_knife,"
zelena",2127,75,knife,[],20,No,slovenski,,SI,ekavica,kajkavski,2,2,Da.,slovenski,Female,preAndPostAge8,"bosanski, engleski",Ne.,Chrome,Windows,720,1280,7.312383333333333,
226,condition1,blue_butterfly,"
plava",2043,76,butterfly,[],20,No,slovenski,,SI,ekavica,kajkavski,2,2,Da.,slovenski,Female,preAndPostAge8,"bosanski, engleski",Ne.,Chrome,Windows,720,1280,7.312383333333333,
226,condition1,black_sock,"
crna",3136,77,sock,[],20,No,slovenski,,SI,ekavica,kajkavski,2,2,Da.,slovenski,Female,preAndPostAge8,"bosanski, engleski",Ne.,Chrome,Windows,720,1280,7.312383333333333,
226,condition1,green_bowl,"
zelena",2771,78,bowl,[],20,No,slovenski,,SI,ekavica,kajkavski,2,2,Da.,slovenski,Female,preAndPostAge8,"bosanski, engleski",Ne.,Chrome,Windows,720,1280,7.312383333333333,
226,condition1,orange_slipper,"
narandžasta",4360,79,slipper,[],20,No,slovenski,,SI,ekavica,kajkavski,2,2,Da.,slovenski,Female,preAndPostAge8,"bosanski, engleski",Ne.,Chrome,Windows,720,1280,7.312383333333333,
226,condition1,yellow_ring,"
žuta",3852,80,ring,[],20,No,slovenski,,SI,ekavica,kajkavski,2,2,Da.,slovenski,Female,preAndPostAge8,"bosanski, engleski",Ne.,Chrome,Windows,720,1280,7.312383333333333,
226,condition1,red_book,"
crvena",1954,81,book,[],20,No,slovenski,,SI,ekavica,kajkavski,2,2,Da.,slovenski,Female,preAndPostAge8,"bosanski, engleski",Ne.,Chrome,Windows,720,1280,7.312383333333333,
226,condition1,yellow_dress,"
žuta",4500,82,dress,[],20,No,slovenski,,SI,ekavica,kajkavski,2,2,Da.,slovenski,Female,preAndPostAge8,"bosanski, engleski",Ne.,Chrome,Windows,720,1280,7.312383333333333,
226,condition1,black_glove,"
crna",2462,83,glove,[],20,No,slovenski,,SI,ekavica,kajkavski,2,2,Da.,slovenski,Female,preAndPostAge8,"bosanski, engleski",Ne.,Chrome,Windows,720,1280,7.312383333333333,
226,condition1,white_mug,"
bjela",1655,84,mug,[],20,No,slovenski,,SI,ekavica,kajkavski,2,2,Da.,slovenski,Female,preAndPostAge8,"bosanski, engleski",Ne.,Chrome,Windows,720,1280,7.312383333333333,
226,condition1,purple_tv,"
ljubičasta",8755,85,tv,[],20,No,slovenski,,SI,ekavica,kajkavski,2,2,Da.,slovenski,Female,preAndPostAge8,"bosanski, engleski",Ne.,Chrome,Windows,720,1280,7.312383333333333,
226,condition1,orange_fork,"
narandžasta",11639,86,fork,[],20,No,slovenski,,SI,ekavica,kajkavski,2,2,Da.,slovenski,Female,preAndPostAge8,"bosanski, engleski",Ne.,Chrome,Windows,720,1280,7.312383333333333,
226,condition1,orange_tie,"
narandžasta",3339,87,tie,[],20,No,slovenski,,SI,ekavica,kajkavski,2,2,Da.,slovenski,Female,preAndPostAge8,"bosanski, engleski",Ne.,Chrome,Windows,720,1280,7.312383333333333,
226,condition1,blue_belt,"
plava",1561,88,belt,[],20,No,slovenski,,SI,ekavica,kajkavski,2,2,Da.,slovenski,Female,preAndPostAge8,"bosanski, engleski",Ne.,Chrome,Windows,720,1280,7.312383333333333,
226,condition1,orange_fish,"
narandžasta",3315,89,fish,[],20,No,slovenski,,SI,ekavica,kajkavski,2,2,Da.,slovenski,Female,preAndPostAge8,"bosanski, engleski",Ne.,Chrome,Windows,720,1280,7.312383333333333,
226,condition1,orange_shovel,"
narandžasta",3043,90,shovel,[],20,No,slovenski,,SI,ekavica,kajkavski,2,2,Da.,slovenski,Female,preAndPostAge8,"bosanski, engleski",Ne.,Chrome,Windows,720,1280,7.312383333333333,
226,condition1,purple_truck,"
ljubičasta",2647,91,truck,[],20,No,slovenski,,SI,ekavica,kajkavski,2,2,Da.,slovenski,Female,preAndPostAge8,"bosanski, engleski",Ne.,Chrome,Windows,720,1280,7.312383333333333,
226,condition1,blue_binder,"
plava",1515,92,binder,[],20,No,slovenski,,SI,ekavica,kajkavski,2,2,Da.,slovenski,Female,preAndPostAge8,"bosanski, engleski",Ne.,Chrome,Windows,720,1280,7.312383333333333,
226,condition1,blue_present,"
plava",1917,93,present,[],20,No,slovenski,,SI,ekavica,kajkavski,2,2,Da.,slovenski,Female,preAndPostAge8,"bosanski, engleski",Ne.,Chrome,Windows,720,1280,7.312383333333333,
226,condition1,yellow_bucket,"
žuta",2250,94,bucket,[],20,No,slovenski,,SI,ekavica,kajkavski,2,2,Da.,slovenski,Female,preAndPostAge8,"bosanski, engleski",Ne.,Chrome,Windows,720,1280,7.312383333333333,
226,condition1,green_microscope,"
zelena",2201,95,microscope,[],20,No,slovenski,,SI,ekavica,kajkavski,2,2,Da.,slovenski,Female,preAndPostAge8,"bosanski, engleski",Ne.,Chrome,Windows,720,1280,7.312383333333333,
226,condition1,yellow_shirt,"
žuta",3035,96,shirt,[],20,No,slovenski,,SI,ekavica,kajkavski,2,2,Da.,slovenski,Female,preAndPostAge8,"bosanski, engleski",Ne.,Chrome,Windows,720,1280,7.312383333333333,
226,condition1,purple_screwdriver,"
ljubičasta",2662,97,screwdriver,[],20,No,slovenski,,SI,ekavica,kajkavski,2,2,Da.,slovenski,Female,preAndPostAge8,"bosanski, engleski",Ne.,Chrome,Windows,720,1280,7.312383333333333,
226,condition1,white_ruler,"
bjela",2155,98,ruler,[],20,No,slovenski,,SI,ekavica,kajkavski,2,2,Da.,slovenski,Female,preAndPostAge8,"bosanski, engleski",Ne.,Chrome,Windows,720,1280,7.312383333333333,
226,condition1,black_ribbon,"
crna",2851,99,ribbon,[],20,No,slovenski,,SI,ekavica,kajkavski,2,2,Da.,slovenski,Female,preAndPostAge8,"bosanski, engleski",Ne.,Chrome,Windows,720,1280,7.312383333333333,
226,condition1,yellow_balloon,"
žuta",1980,100,balloon,[],20,No,slovenski,,SI,ekavica,kajkavski,2,2,Da.,slovenski,Female,preAndPostAge8,"bosanski, engleski",Ne.,Chrome,Windows,720,1280,7.312383333333333,
226,condition1,green_whistle,"
zelena",1827,101,whistle,[],20,No,slovenski,,SI,ekavica,kajkavski,2,2,Da.,slovenski,Female,preAndPostAge8,"bosanski, engleski",Ne.,Chrome,Windows,720,1280,7.312383333333333,
226,condition1,red_magnifyingglass,"
crvena",2074,102,magnifyingglass,[],20,No,slovenski,,SI,ekavica,kajkavski,2,2,Da.,slovenski,Female,preAndPostAge8,"bosanski, engleski",Ne.,Chrome,Windows,720,1280,7.312383333333333,
226,condition1,orange_remote,"
narandžasta",3192,103,remote,[],20,No,slovenski,,SI,ekavica,kajkavski,2,2,Da.,slovenski,Female,preAndPostAge8,"bosanski, engleski",Ne.,Chrome,Windows,720,1280,7.312383333333333,
226,condition1,purple_sponge,"
ljubičasta",5381,104,sponge,[],20,No,slovenski,,SI,ekavica,kajkavski,2,2,Da.,slovenski,Female,preAndPostAge8,"bosanski, engleski",Ne.,Chrome,Windows,720,1280,7.312383333333333,
226,condition1,blue_iron,"
plava",2677,105,iron,[],20,No,slovenski,,SI,ekavica,kajkavski,2,2,Da.,slovenski,Female,preAndPostAge8,"bosanski, engleski",Ne.,Chrome,Windows,720,1280,7.312383333333333,
226,condition1,orange_luggage,"
narandžasta",4714,106,luggage,[],20,No,slovenski,,SI,ekavica,kajkavski,2,2,Da.,slovenski,Female,preAndPostAge8,"bosanski, engleski",Ne.,Chrome,Windows,720,1280,7.312383333333333,
263,condition1,yellow_dustpan,žuto,10023,2,dustpan,[],44,Yes,hrvatski,,HR,ijekavica,kajkavski,1,1,da,hrvatski,Male,preAndPostAge8,"engleski, španjolski",ne,Chrome,Mac,1440,2560,5.5953333333333335,
263,condition1,yellow_bracelet,"
žuto",2149,3,bracelet,[],44,Yes,hrvatski,,HR,ijekavica,kajkavski,1,1,da,hrvatski,Male,preAndPostAge8,"engleski, španjolski",ne,Chrome,Mac,1440,2560,5.5953333333333335,
263,condition1,green_rope,"
zeleno",2294,4,rope,[],44,Yes,hrvatski,,HR,ijekavica,kajkavski,1,1,da,hrvatski,Male,preAndPostAge8,"engleski, španjolski",ne,Chrome,Mac,1440,2560,5.5953333333333335,
263,condition1,blue_phone,"
plavo",2700,5,phone,[],44,Yes,hrvatski,,HR,ijekavica,kajkavski,1,1,da,hrvatski,Male,preAndPostAge8,"engleski, španjolski",ne,Chrome,Mac,1440,2560,5.5953333333333335,
263,condition1,orange_sponge,"
narančasto",4197,6,sponge,[],44,Yes,hrvatski,,HR,ijekavica,kajkavski,1,1,da,hrvatski,Male,preAndPostAge8,"engleski, španjolski",ne,Chrome,Mac,1440,2560,5.5953333333333335,
263,condition1,green_plate,"
zeleno",1788,7,plate,[],44,Yes,hrvatski,,HR,ijekavica,kajkavski,1,1,da,hrvatski,Male,preAndPostAge8,"engleski, španjolski",ne,Chrome,Mac,1440,2560,5.5953333333333335,
263,condition1,black_ladle,"
crno",2013,8,ladle,[],44,Yes,hrvatski,,HR,ijekavica,kajkavski,1,1,da,hrvatski,Male,preAndPostAge8,"engleski, španjolski",ne,Chrome,Mac,1440,2560,5.5953333333333335,
263,condition1,black_tv,"
crno",1800,9,tv,[],44,Yes,hrvatski,,HR,ijekavica,kajkavski,1,1,da,hrvatski,Male,preAndPostAge8,"engleski, španjolski",ne,Chrome,Mac,1440,2560,5.5953333333333335,
263,condition1,black_ribbon,"
crno",1641,10,ribbon,[],44,Yes,hrvatski,,HR,ijekavica,kajkavski,1,1,da,hrvatski,Male,preAndPostAge8,"engleski, španjolski",ne,Chrome,Mac,1440,2560,5.5953333333333335,
263,condition1,purple_sock,"
ljubičasto",4602,11,sock,[],44,Yes,hrvatski,,HR,ijekavica,kajkavski,1,1,da,hrvatski,Male,preAndPostAge8,"engleski, španjolski",ne,Chrome,Mac,1440,2560,5.5953333333333335,
263,condition1,blue_scarf,"
plavo",1530,12,scarf,[],44,Yes,hrvatski,,HR,ijekavica,kajkavski,1,1,da,hrvatski,Male,preAndPostAge8,"engleski, španjolski",ne,Chrome,Mac,1440,2560,5.5953333333333335,
263,condition1,white_notebook,"
bijelo",2700,13,notebook,[],44,Yes,hrvatski,,HR,ijekavica,kajkavski,1,1,da,hrvatski,Male,preAndPostAge8,"engleski, španjolski",ne,Chrome,Mac,1440,2560,5.5953333333333335,
263,condition1,orange_die,"
narančasto",3971,14,die,[],44,Yes,hrvatski,,HR,ijekavica,kajkavski,1,1,da,hrvatski,Male,preAndPostAge8,"engleski, španjolski",ne,Chrome,Mac,1440,2560,5.5953333333333335,
263,condition1,green_bench,"
zeleno",1744,15,bench,[],44,Yes,hrvatski,,HR,ijekavica,kajkavski,1,1,da,hrvatski,Male,preAndPostAge8,"engleski, španjolski",ne,Chrome,Mac,1440,2560,5.5953333333333335,
263,condition1,white_bike,"
bijelo",2362,16,bike,[],44,Yes,hrvatski,,HR,ijekavica,kajkavski,1,1,da,hrvatski,Male,preAndPostAge8,"engleski, španjolski",ne,Chrome,Mac,1440,2560,5.5953333333333335,
263,condition1,purple_shield,"
ljubičasto",3308,17,shield,[],44,Yes,hrvatski,,HR,ijekavica,kajkavski,1,1,da,hrvatski,Male,preAndPostAge8,"engleski, španjolski",ne,Chrome,Mac,1440,2560,5.5953333333333335,
263,condition1,red_belt,"
crveno",2070,18,belt,[],44,Yes,hrvatski,,HR,ijekavica,kajkavski,1,1,da,hrvatski,Male,preAndPostAge8,"engleski, španjolski",ne,Chrome,Mac,1440,2560,5.5953333333333335,
263,condition1,white_pencil,"
bijelo",2115,19,pencil,[],44,Yes,hrvatski,,HR,ijekavica,kajkavski,1,1,da,hrvatski,Male,preAndPostAge8,"engleski, španjolski",ne,Chrome,Mac,1440,2560,5.5953333333333335,
263,condition1,white_iron,"
bijelo",2801,20,iron,[],44,Yes,hrvatski,,HR,ijekavica,kajkavski,1,1,da,hrvatski,Male,preAndPostAge8,"engleski, španjolski",ne,Chrome,Mac,1440,2560,5.5953333333333335,
263,condition1,yellow_sword,"
žuto",2418,21,sword,[],44,Yes,hrvatski,,HR,ijekavica,kajkavski,1,1,da,hrvatski,Male,preAndPostAge8,"engleski, španjolski",ne,Chrome,Mac,1440,2560,5.5953333333333335,
263,condition1,purple_drum,"
ljubičasto",2688,22,drum,[],44,Yes,hrvatski,,HR,ijekavica,kajkavski,1,1,da,hrvatski,Male,preAndPostAge8,"engleski, španjolski",ne,Chrome,Mac,1440,2560,5.5953333333333335,
263,condition1,purple_umbrella,ljubičasto,6739,23,umbrella,[],44,Yes,hrvatski,,HR,ijekavica,kajkavski,1,1,da,hrvatski,Male,preAndPostAge8,"engleski, španjolski",ne,Chrome,Mac,1440,2560,5.5953333333333335,
263,condition1,yellow_balloon,"
žuto",2464,24,balloon,[],44,Yes,hrvatski,,HR,ijekavica,kajkavski,1,1,da,hrvatski,Male,preAndPostAge8,"engleski, španjolski",ne,Chrome,Mac,1440,2560,5.5953333333333335,
263,condition1,black_lock,"
crno",1742,25,lock,[],44,Yes,hrvatski,,HR,ijekavica,kajkavski,1,1,da,hrvatski,Male,preAndPostAge8,"engleski, španjolski",ne,Chrome,Mac,1440,2560,5.5953333333333335,
263,condition1,red_stapler,"
crveno",1992,26,stapler,[],44,Yes,hrvatski,,HR,ijekavica,kajkavski,1,1,da,hrvatski,Male,preAndPostAge8,"engleski, španjolski",ne,Chrome,Mac,1440,2560,5.5953333333333335,
263,condition1,black_truck,"
crno",1473,27,truck,[],44,Yes,hrvatski,,HR,ijekavica,kajkavski,1,1,da,hrvatski,Male,preAndPostAge8,"engleski, španjolski",ne,Chrome,Mac,1440,2560,5.5953333333333335,
263,condition1,yellow_ornament,"
žuto",2150,28,ornament,[],44,Yes,hrvatski,,HR,ijekavica,kajkavski,1,1,da,hrvatski,Male,preAndPostAge8,"engleski, španjolski",ne,Chrome,Mac,1440,2560,5.5953333333333335,
263,condition1,orange_dresser,"
narančasto",2801,29,dresser,[],44,Yes,hrvatski,,HR,ijekavica,kajkavski,1,1,da,hrvatski,Male,preAndPostAge8,"engleski, španjolski",ne,Chrome,Mac,1440,2560,5.5953333333333335,
263,condition1,purple_bandaid,"
ljubičasto",1406,30,bandaid,[],44,Yes,hrvatski,,HR,ijekavica,kajkavski,1,1,da,hrvatski,Male,preAndPostAge8,"engleski, španjolski",ne,Chrome,Mac,1440,2560,5.5953333333333335,
263,condition1,purple_whistle,"
ljubičasto",1169,31,whistle,[],44,Yes,hrvatski,,HR,ijekavica,kajkavski,1,1,da,hrvatski,Male,preAndPostAge8,"engleski, španjolski",ne,Chrome,Mac,1440,2560,5.5953333333333335,
263,condition1,yellow_shirt,"
žuto",3038,32,shirt,[],44,Yes,hrvatski,,HR,ijekavica,kajkavski,1,1,da,hrvatski,Male,preAndPostAge8,"engleski, španjolski",ne,Chrome,Mac,1440,2560,5.5953333333333335,
263,condition1,yellow_door,"
žuto",2239,33,door,[],44,Yes,hrvatski,,HR,ijekavica,kajkavski,1,1,da,hrvatski,Male,preAndPostAge8,"engleski, španjolski",ne,Chrome,Mac,1440,2560,5.5953333333333335,
263,condition1,blue_key,"
plavo",2104,34,key,[],44,Yes,hrvatski,,HR,ijekavica,kajkavski,1,1,da,hrvatski,Male,preAndPostAge8,"engleski, španjolski",ne,Chrome,Mac,1440,2560,5.5953333333333335,
263,condition1,yellow_switch,"
žuto",2317,35,switch,[],44,Yes,hrvatski,,HR,ijekavica,kajkavski,1,1,da,hrvatski,Male,preAndPostAge8,"engleski, španjolski",ne,Chrome,Mac,1440,2560,5.5953333333333335,
263,condition1,black_tent,"
crno",2036,36,tent,[],44,Yes,hrvatski,,HR,ijekavica,kajkavski,1,1,da,hrvatski,Male,preAndPostAge8,"engleski, španjolski",ne,Chrome,Mac,1440,2560,5.5953333333333335,
263,condition1,white_dress,"
bijelo",3409,37,dress,[],44,Yes,hrvatski,,HR,ijekavica,kajkavski,1,1,da,hrvatski,Male,preAndPostAge8,"engleski, španjolski",ne,Chrome,Mac,1440,2560,5.5953333333333335,
263,condition1,blue_mouse,"
plavo",2811,38,mouse,[],44,Yes,hrvatski,,HR,ijekavica,kajkavski,1,1,da,hrvatski,Male,preAndPostAge8,"engleski, španjolski",ne,Chrome,Mac,1440,2560,5.5953333333333335,
263,condition1,purple_razor,"
ljubičasto",1429,39,razor,[],44,Yes,hrvatski,,HR,ijekavica,kajkavski,1,1,da,hrvatski,Male,preAndPostAge8,"engleski, španjolski",ne,Chrome,Mac,1440,2560,5.5953333333333335,
263,condition1,purple_slipper,"
ljubičasto",833,40,slipper,[],44,Yes,hrvatski,,HR,ijekavica,kajkavski,1,1,da,hrvatski,Male,preAndPostAge8,"engleski, španjolski",ne,Chrome,Mac,1440,2560,5.5953333333333335,
263,condition1,orange_cake,"
narančasto",2756,41,cake,[],44,Yes,hrvatski,,HR,ijekavica,kajkavski,1,1,da,hrvatski,Male,preAndPostAge8,"engleski, španjolski",ne,Chrome,Mac,1440,2560,5.5953333333333335,
263,condition1,black_luggage,crno,4725,42,luggage,[],44,Yes,hrvatski,,HR,ijekavica,kajkavski,1,1,da,hrvatski,Male,preAndPostAge8,"engleski, španjolski",ne,Chrome,Mac,1440,2560,5.5953333333333335,
263,condition1,yellow_guitar,"
žuto",2058,43,guitar,[],44,Yes,hrvatski,,HR,ijekavica,kajkavski,1,1,da,hrvatski,Male,preAndPostAge8,"engleski, španjolski",ne,Chrome,Mac,1440,2560,5.5953333333333335,
263,condition1,orange_glove,narančasto,5153,44,glove,[],44,Yes,hrvatski,,HR,ijekavica,kajkavski,1,1,da,hrvatski,Male,preAndPostAge8,"engleski, španjolski",ne,Chrome,Mac,1440,2560,5.5953333333333335,
263,condition1,blue_binder,"
plavo",1698,45,binder,[],44,Yes,hrvatski,,HR,ijekavica,kajkavski,1,1,da,hrvatski,Male,preAndPostAge8,"engleski, španjolski",ne,Chrome,Mac,1440,2560,5.5953333333333335,
263,condition1,yellow_shoe,"
žuto",1765,46,shoe,[],44,Yes,hrvatski,,HR,ijekavica,kajkavski,1,1,da,hrvatski,Male,preAndPostAge8,"engleski, španjolski",ne,Chrome,Mac,1440,2560,5.5953333333333335,
263,condition1,blue_cap,"
plavo",1834,47,cap,[],44,Yes,hrvatski,,HR,ijekavica,kajkavski,1,1,da,hrvatski,Male,preAndPostAge8,"engleski, španjolski",ne,Chrome,Mac,1440,2560,5.5953333333333335,
263,condition1,green_purse,"
zeleno",2609,48,purse,[],44,Yes,hrvatski,,HR,ijekavica,kajkavski,1,1,da,hrvatski,Male,preAndPostAge8,"engleski, španjolski",ne,Chrome,Mac,1440,2560,5.5953333333333335,
263,condition1,black_necklace,"
crno",1587,49,necklace,[],44,Yes,hrvatski,,HR,ijekavica,kajkavski,1,1,da,hrvatski,Male,preAndPostAge8,"engleski, španjolski",ne,Chrome,Mac,1440,2560,5.5953333333333335,
263,condition1,black_airplane,"
crno",1676,50,airplane,[],44,Yes,hrvatski,,HR,ijekavica,kajkavski,1,1,da,hrvatski,Male,preAndPostAge8,"engleski, španjolski",ne,Chrome,Mac,1440,2560,5.5953333333333335,
263,condition1,white_coathanger,"
bijelo",2160,51,coathanger,[],44,Yes,hrvatski,,HR,ijekavica,kajkavski,1,1,da,hrvatski,Male,preAndPostAge8,"engleski, španjolski",ne,Chrome,Mac,1440,2560,5.5953333333333335,
263,condition1,purple_fork,"
ljubičasto",1383,52,fork,[],44,Yes,hrvatski,,HR,ijekavica,kajkavski,1,1,da,hrvatski,Male,preAndPostAge8,"engleski, španjolski",ne,Chrome,Mac,1440,2560,5.5953333333333335,
263,condition1,blue_ring,"
plavo",2305,53,ring,[],44,Yes,hrvatski,,HR,ijekavica,kajkavski,1,1,da,hrvatski,Male,preAndPostAge8,"engleski, španjolski",ne,Chrome,Mac,1440,2560,5.5953333333333335,
263,condition1,red_lamp,"
crveno",1789,54,lamp,[],44,Yes,hrvatski,,HR,ijekavica,kajkavski,1,1,da,hrvatski,Male,preAndPostAge8,"engleski, španjolski",ne,Chrome,Mac,1440,2560,5.5953333333333335,
263,condition1,blue_book,"
plavo",1529,55,book,[],44,Yes,hrvatski,,HR,ijekavica,kajkavski,1,1,da,hrvatski,Male,preAndPostAge8,"engleski, španjolski",ne,Chrome,Mac,1440,2560,5.5953333333333335,
263,condition1,green_bowl,"
zeleno",2352,56,bowl,[],44,Yes,hrvatski,,HR,ijekavica,kajkavski,1,1,da,hrvatski,Male,preAndPostAge8,"engleski, španjolski",ne,Chrome,Mac,1440,2560,5.5953333333333335,
263,condition1,orange_basket,"
narančasto",2395,57,basket,[],44,Yes,hrvatski,,HR,ijekavica,kajkavski,1,1,da,hrvatski,Male,preAndPostAge8,"engleski, španjolski",ne,Chrome,Mac,1440,2560,5.5953333333333335,
263,condition1,white_mask,"
bijelo",3432,58,mask,[],44,Yes,hrvatski,,HR,ijekavica,kajkavski,1,1,da,hrvatski,Male,preAndPostAge8,"engleski, španjolski",ne,Chrome,Mac,1440,2560,5.5953333333333335,
263,condition1,red_comb,"
crveno",2767,59,comb,[],44,Yes,hrvatski,,HR,ijekavica,kajkavski,1,1,da,hrvatski,Male,preAndPostAge8,"engleski, španjolski",ne,Chrome,Mac,1440,2560,5.5953333333333335,
263,condition1,yellow_yarn,"
žuto",1597,60,yarn,[],44,Yes,hrvatski,,HR,ijekavica,kajkavski,1,1,da,hrvatski,Male,preAndPostAge8,"engleski, španjolski",ne,Chrome,Mac,1440,2560,5.5953333333333335,
263,condition1,purple_fish,"
ljubičasto",1305,61,fish,[],44,Yes,hrvatski,,HR,ijekavica,kajkavski,1,1,da,hrvatski,Male,preAndPostAge8,"engleski, španjolski",ne,Chrome,Mac,1440,2560,5.5953333333333335,
263,condition1,orange_radio,"
narančasto",3139,62,radio,[],44,Yes,hrvatski,,HR,ijekavica,kajkavski,1,1,da,hrvatski,Male,preAndPostAge8,"engleski, španjolski",ne,Chrome,Mac,1440,2560,5.5953333333333335,
263,condition1,green_camera,"
zeleno",2159,63,camera,[],44,Yes,hrvatski,,HR,ijekavica,kajkavski,1,1,da,hrvatski,Male,preAndPostAge8,"engleski, španjolski",ne,Chrome,Mac,1440,2560,5.5953333333333335,
263,condition1,yellow_table,"
žuto",2228,64,table,[],44,Yes,hrvatski,,HR,ijekavica,kajkavski,1,1,da,hrvatski,Male,preAndPostAge8,"engleski, španjolski",ne,Chrome,Mac,1440,2560,5.5953333333333335,
263,condition1,orange_binoculars,"
narančasto",2711,65,binoculars,[],44,Yes,hrvatski,,HR,ijekavica,kajkavski,1,1,da,hrvatski,Male,preAndPostAge8,"engleski, španjolski",ne,Chrome,Mac,1440,2560,5.5953333333333335,
263,condition1,blue_bed,"
plavo",2149,66,bed,[],44,Yes,hrvatski,,HR,ijekavica,kajkavski,1,1,da,hrvatski,Male,preAndPostAge8,"engleski, španjolski",ne,Chrome,Mac,1440,2560,5.5953333333333335,
263,condition1,blue_crown,"
plavo",1912,67,crown,[],44,Yes,hrvatski,,HR,ijekavica,kajkavski,1,1,da,hrvatski,Male,preAndPostAge8,"engleski, španjolski",ne,Chrome,Mac,1440,2560,5.5953333333333335,
263,condition1,black_knife,"
crno",1889,68,knife,[],44,Yes,hrvatski,,HR,ijekavica,kajkavski,1,1,da,hrvatski,Male,preAndPostAge8,"engleski, španjolski",ne,Chrome,Mac,1440,2560,5.5953333333333335,
263,condition1,white_fence,"
bijelo",2149,69,fence,[],44,Yes,hrvatski,,HR,ijekavica,kajkavski,1,1,da,hrvatski,Male,preAndPostAge8,"engleski, španjolski",ne,Chrome,Mac,1440,2560,5.5953333333333335,
263,condition1,green_vase,"
zeleno",1766,70,vase,[],44,Yes,hrvatski,,HR,ijekavica,kajkavski,1,1,da,hrvatski,Male,preAndPostAge8,"engleski, španjolski",ne,Chrome,Mac,1440,2560,5.5953333333333335,
263,condition1,black_lipstick,"
crno",1540,71,lipstick,[],44,Yes,hrvatski,,HR,ijekavica,kajkavski,1,1,da,hrvatski,Male,preAndPostAge8,"engleski, španjolski",ne,Chrome,Mac,1440,2560,5.5953333333333335,
263,condition1,blue_calculator,"
plavo",1867,72,calculator,[],44,Yes,hrvatski,,HR,ijekavica,kajkavski,1,1,da,hrvatski,Male,preAndPostAge8,"engleski, španjolski",ne,Chrome,Mac,1440,2560,5.5953333333333335,
263,condition1,orange_hammer,"
narančasto",3128,73,hammer,[],44,Yes,hrvatski,,HR,ijekavica,kajkavski,1,1,da,hrvatski,Male,preAndPostAge8,"engleski, španjolski",ne,Chrome,Mac,1440,2560,5.5953333333333335,
263,condition1,yellow_mug,"
žuto",2565,74,mug,[],44,Yes,hrvatski,,HR,ijekavica,kajkavski,1,1,da,hrvatski,Male,preAndPostAge8,"engleski, španjolski",ne,Chrome,Mac,1440,2560,5.5953333333333335,
263,condition1,blue_ruler,"
plavo",1608,75,ruler,[],44,Yes,hrvatski,,HR,ijekavica,kajkavski,1,1,da,hrvatski,Male,preAndPostAge8,"engleski, španjolski",ne,Chrome,Mac,1440,2560,5.5953333333333335,
263,condition1,red_frame,"
crveno",1891,76,frame,[],44,Yes,hrvatski,,HR,ijekavica,kajkavski,1,1,da,hrvatski,Male,preAndPostAge8,"engleski, španjolski",ne,Chrome,Mac,1440,2560,5.5953333333333335,
263,condition1,yellow_cushion,"
žuto",1811,77,cushion,[],44,Yes,hrvatski,,HR,ijekavica,kajkavski,1,1,da,hrvatski,Male,preAndPostAge8,"engleski, španjolski",ne,Chrome,Mac,1440,2560,5.5953333333333335,
263,condition1,green_boot,"
zeleno",1890,78,boot,[],44,Yes,hrvatski,,HR,ijekavica,kajkavski,1,1,da,hrvatski,Male,preAndPostAge8,"engleski, španjolski",ne,Chrome,Mac,1440,2560,5.5953333333333335,
263,condition1,black_spoon,"
crno",1788,79,spoon,[],44,Yes,hrvatski,,HR,ijekavica,kajkavski,1,1,da,hrvatski,Male,preAndPostAge8,"engleski, španjolski",ne,Chrome,Mac,1440,2560,5.5953333333333335,
263,condition1,purple_shovel,"
ljubičasto",1564,80,shovel,[],44,Yes,hrvatski,,HR,ijekavica,kajkavski,1,1,da,hrvatski,Male,preAndPostAge8,"engleski, španjolski",ne,Chrome,Mac,1440,2560,5.5953333333333335,
263,condition1,blue_candle,"
plavo",1676,81,candle,[],44,Yes,hrvatski,,HR,ijekavica,kajkavski,1,1,da,hrvatski,Male,preAndPostAge8,"engleski, španjolski",ne,Chrome,Mac,1440,2560,5.5953333333333335,
263,condition1,green_robot,zeleno,4049,82,robot,[],44,Yes,hrvatski,,HR,ijekavica,kajkavski,1,1,da,hrvatski,Male,preAndPostAge8,"engleski, španjolski",ne,Chrome,Mac,1440,2560,5.5953333333333335,
263,condition1,orange_piano,"
narnčasto",3308,83,piano,[],44,Yes,hrvatski,,HR,ijekavica,kajkavski,1,1,da,hrvatski,Male,preAndPostAge8,"engleski, španjolski",ne,Chrome,Mac,1440,2560,5.5953333333333335,
263,condition1,white_armchair,"
bijelo",3072,84,armchair,[],44,Yes,hrvatski,,HR,ijekavica,kajkavski,1,1,da,hrvatski,Male,preAndPostAge8,"engleski, španjolski",ne,Chrome,Mac,1440,2560,5.5953333333333335,
263,condition1,white_flower,"
bijelo",1911,85,flower,[],44,Yes,hrvatski,,HR,ijekavica,kajkavski,1,1,da,hrvatski,Male,preAndPostAge8,"engleski, španjolski",ne,Chrome,Mac,1440,2560,5.5953333333333335,
263,condition1,blue_bucket,"
plavo",1811,86,bucket,[],44,Yes,hrvatski,,HR,ijekavica,kajkavski,1,1,da,hrvatski,Male,preAndPostAge8,"engleski, španjolski",ne,Chrome,Mac,1440,2560,5.5953333333333335,
263,condition1,orange_shell,"
narančasto",4140,87,shell,[],44,Yes,hrvatski,,HR,ijekavica,kajkavski,1,1,da,hrvatski,Male,preAndPostAge8,"engleski, španjolski",ne,Chrome,Mac,1440,2560,5.5953333333333335,
263,condition1,orange_bonbon,"
narančasto",2981,88,bonbon,[],44,Yes,hrvatski,,HR,ijekavica,kajkavski,1,1,da,hrvatski,Male,preAndPostAge8,"engleski, španjolski",ne,Chrome,Mac,1440,2560,5.5953333333333335,
263,condition1,black_tie,"
crno",2091,89,tie,[],44,Yes,hrvatski,,HR,ijekavica,kajkavski,1,1,da,hrvatski,Male,preAndPostAge8,"engleski, španjolski",ne,Chrome,Mac,1440,2560,5.5953333333333335,
263,condition1,orange_microscope,"
narančasto",3724,90,microscope,[],44,Yes,hrvatski,,HR,ijekavica,kajkavski,1,1,da,hrvatski,Male,preAndPostAge8,"engleski, španjolski",ne,Chrome,Mac,1440,2560,5.5953333333333335,
263,condition1,red_wallet,"
crveno",2407,91,wallet,[],44,Yes,hrvatski,,HR,ijekavica,kajkavski,1,1,da,hrvatski,Male,preAndPostAge8,"engleski, španjolski",ne,Chrome,Mac,1440,2560,5.5953333333333335,
263,condition1,white_billiardball,"
bijelo",1789,92,billiardball,[],44,Yes,hrvatski,,HR,ijekavica,kajkavski,1,1,da,hrvatski,Male,preAndPostAge8,"engleski, španjolski",ne,Chrome,Mac,1440,2560,5.5953333333333335,
263,condition1,blue_rug,"
plavo",1530,93,rug,[],44,Yes,hrvatski,,HR,ijekavica,kajkavski,1,1,da,hrvatski,Male,preAndPostAge8,"engleski, španjolski",ne,Chrome,Mac,1440,2560,5.5953333333333335,
263,condition1,white_butterfly,"
bijelo",1743,94,butterfly,[],44,Yes,hrvatski,,HR,ijekavica,kajkavski,1,1,da,hrvatski,Male,preAndPostAge8,"engleski, španjolski",ne,Chrome,Mac,1440,2560,5.5953333333333335,
263,condition1,white_magnifyingglass,"
bijelo",1924,95,magnifyingglass,[],44,Yes,hrvatski,,HR,ijekavica,kajkavski,1,1,da,hrvatski,Male,preAndPostAge8,"engleski, španjolski",ne,Chrome,Mac,1440,2560,5.5953333333333335,
263,condition1,black_screwdriver,"
